t,ax,ay,az
0.0,-0.12,0.616,0.014
0.01,-0.479,1.282,-0.168
0.02,-0.051,0.939,-0.075
0.03,-0.15,1.032,0.097
0.04,-0.161,0.826,0.192
0.05,-0.299,0.887,-0.122
0.06,-0.276,1.166,-0.152
0.07,-0.097,0.913,0.128
0.08,-0.179,1.075,0.084
0.09,-0.168,0.651,-0.016
0.1,-0.401,1.326,-0.134
0.11,-0.157,0.9,-0.069
0.12,-0.147,0.94,0.167
0.13,-0.111,0.962,0.16
0.14,-0.442,0.792,-0.187
0.15,-0.178,1.161,-0.144
0.16,0.009,0.965,0.044
0.17,-0.183,0.976,0.111
0.18,-0.154,0.703,0.033
0.19,-0.383,1.27,-0.2
0.2,-0.151,0.921,0.011
0.21,-0.167,0.898,0.19
0.22,-0.138,0.989,0.095
0.23,-0.379,0.762,-0.184
0.24,-0.274,1.234,-0.098
0.25,0.004,0.943,0.106
0.26,-0.155,0.985,0.118
0.27,-0.26,0.718,0.011
0.28,-0.327,1.2,-0.176
0.29,-0.076,1.07,-0.006
0.3,-0.19,0.789,0.153
0.31,-0.121,1.043,0.069
0.32,-0.317,0.812,-0.177
0.33,-0.35,1.22,-0.089
0.34,0.032,0.849,0.076
0.35,-0.123,0.978,0.111
0.36,-0.338,0.831,0.029
0.37,-0.331,1.051,-0.189
0.38,-0.132,1.109,-0.015
0.39,-0.175,0.788,0.22
0.4,-0.182,1.048,0.04
0.41,-0.334,0.787,-0.192
0.42,-0.261,1.267,0.015
0.43,-0.112,0.837,0.079
0.44,-0.137,0.862,0.141
0.45,-0.337,0.958,-0.061
0.46,-0.281,1.003,-0.147
0.47,-0.106,1.121,-0.026
0.48,-0.111,0.764,0.184
0.49,-0.125,1.072,0.048
0.5,-0.425,0.85,-0.248
0.51,-0.154,1.144,-0.054
0.52,-0.06,0.859,0.11
0.53,-0.245,0.887,0.188
0.54,-0.317,1.013,-0.128
0.55,-0.269,0.865,-0.153
0.56,-0.18,1.226,0.134
0.57,-0.031,0.701,0.108
0.58,-0.235,1.051,-0.022
0.59,-0.383,0.93,-0.15
0.6,-0.149,1.128,-0.023
0.61,-0.154,0.878,0.106
0.62,-0.109,0.824,0.149
0.63,-0.388,1.115,-0.151
0.64,-0.17,0.917,0.138
0.65,-0.257,0.769,0.03
0.66,-0.294,1.183,-0.256
0.67,-0.171,1.006,0.024
0.68,-0.053,0.904,0.165
0.69,-0.167,0.979,0.069
0.7,-0.428,0.837,-0.168
0.71,-0.127,1.299,-0.106
0.72,-0.141,0.761,0.103
0.73,-0.19,0.991,0.185
0.74,-0.211,0.839,-0.093
0.75,-0.316,1.016,-0.201
0.76,-0.119,1.121,0.072
0.77,-0.092,0.82,0.126
0.78,-0.253,0.984,0.085
0.79,-0.381,0.9,-0.202
0.8,-0.114,1.249,-0.086
0.81,-0.111,0.749,0.137
0.82,-0.193,0.971,0.186
0.83,-0.304,0.899,-0.126
0.84,-0.331,0.969,-0.178
0.85,-0.087,1.18,0.104
0.86,-0.073,0.754,0.11
0.87,-0.24,1.005,0.011
0.88,-0.383,0.882,-0.143
0.89,-0.068,1.235,-0.074
0.9,-0.111,0.755,0.105
0.91,-0.212,0.922,0.201
0.92,-0.382,1.0,-0.142
0.93,-0.225,0.897,-0.174
0.94,-0.04,1.275,0.126
0.95,-0.141,0.635,0.129
0.96,-0.28,1.074,0.002
0.97,-0.332,0.954,-0.173
0.98,-0.161,1.115,-0.016
0.99,-0.149,0.823,0.164
1.0,-0.058,0.899,0.084
1.01,-0.434,1.072,-0.187
1.02,-0.268,0.845,-0.065
1.03,-0.081,1.271,0.085
1.04,-0.094,0.624,0.105
1.05,-0.334,1.106,0.021
1.06,-0.299,0.941,-0.242
1.07,-0.139,1.064,-0.022
1.08,-0.136,0.962,0.203
1.09,-0.15,0.768,0.06
1.1,-0.45,1.134,-0.178
1.11,-0.103,0.884,-0.064
1.12,-0.111,1.196,0.002
1.13,-0.171,0.651,0.208
1.14,-0.227,1.115,-0.065
1.15,-0.356,0.951,-0.196
1.16,-0.146,1.013,0.109
1.17,-0.098,0.954,0.138
1.18,-0.233,0.713,0.04
1.19,-0.483,1.28,-0.162
1.2,-0.026,0.803,-0.104
1.21,-0.236,1.163,0.094
1.22,-0.063,0.745,0.162
1.23,-0.359,1.021,-0.118
1.24,-0.36,0.964,-0.134
1.25,0.005,1.036,0.076
1.26,-0.149,0.984,0.136
1.27,-0.252,0.67,0.04
1.28,-0.358,1.353,-0.189
1.29,-0.096,0.868,-0.025
1.3,-0.249,1.087,0.144
1.31,-0.039,0.758,0.128
1.32,-0.386,1.002,-0.161
1.33,-0.29,1.065,-0.074
1.34,-0.001,0.988,0.067
1.35,-0.169,1.011,0.115
1.36,-0.231,0.691,0.022
1.37,-0.399,1.324,-0.192
1.38,-0.109,0.822,-0.01
1.39,-0.136,1.104,0.162
1.4,-0.117,0.77,0.102
1.41,-0.454,0.964,-0.149
1.42,-0.123,1.172,-0.157
1.43,-0.041,0.888,0.113
1.44,-0.214,1.028,0.147
1.45,-0.257,0.723,-0.05
1.46,-0.306,1.222,-0.158
1.47,-0.155,0.872,0.079
1.48,-0.097,1.122,0.145
1.49,-0.194,0.684,0.018
1.5,-0.392,1.1,-0.199
1.51,-0.166,1.081,-0.02
1.52,-0.189,0.873,0.117
1.53,-0.166,0.966,0.159
1.54,-0.3,0.759,-0.127
1.55,-0.226,1.264,-0.147
1.56,-0.211,0.885,0.103
1.57,-0.114,0.985,0.14
1.58,-0.162,0.779,-0.034
1.59,-0.466,1.097,-0.134
1.6,-0.101,1.07,-0.075
1.61,-0.114,0.774,0.107
1.62,-0.159,1.104,0.137
1.63,-0.357,0.737,-0.181
1.64,-0.329,1.191,-0.095
1.65,0.013,0.991,0.102
1.66,-0.114,0.887,0.105
1.67,-0.365,0.863,0.003
1.68,-0.27,1.059,-0.18
1.69,-0.147,1.127,-0.076
1.7,-0.153,0.728,0.23
1.71,-0.071,1.112,0.068
1.72,-0.373,0.792,-0.241
1.73,-0.236,1.186,-0.006
1.74,-0.109,0.953,0.082
1.75,-0.142,0.83,0.134
1.76,-0.354,1.004,-0.009
1.77,-0.232,0.897,-0.217
1.78,-0.199,1.194,0.048
1.79,-0.092,0.71,0.199
1.8,-0.165,1.066,0.033
1.81,-0.395,0.874,-0.237
1.82,-0.116,1.096,-0.083
1.83,-0.091,0.948,0.101
1.84,-0.26,0.811,0.161
1.85,-0.287,1.044,-0.143
1.86,-0.228,0.861,-0.17
1.87,-0.191,1.295,0.123
1.88,-0.03,0.678,0.102
1.89,-0.293,1.021,0.042
1.9,-0.323,0.966,-0.16
1.91,-0.116,1.096,-0.008
1.92,-0.249,0.929,0.106
1.93,-0.051,0.809,0.152
1.94,-0.4,1.103,-0.204
1.95,-0.313,0.815,-0.051
1.96,-0.014,1.32,0.069
1.97,-0.076,0.629,0.065
1.98,-0.328,1.017,0.066
1.99,-0.222,1.038,-0.199
2.0,-0.165,0.973,0.018
2.01,-0.213,0.96,0.214
2.02,-0.023,0.759,0.066
2.03,-0.497,1.197,-0.245
2.04,-0.096,0.827,-0.047
2.05,-0.115,1.271,0.094
2.06,-0.162,0.685,0.119
2.07,-0.309,0.986,-0.05
2.08,-0.294,1.011,-0.221
2.09,-0.166,0.931,0.07
2.1,-0.096,1.125,0.132
2.11,-0.117,0.649,-0.001
2.12,-0.516,1.238,-0.158
2.13,-0.072,0.889,-0.079
2.14,-0.154,1.113,0.085
2.15,-0.132,0.783,0.18
2.16,-0.362,0.948,-0.118
2.17,-0.279,1.095,-0.205
2.18,0.024,0.972,0.094
2.19,-0.195,1.043,0.148
2.2,-0.21,0.647,-0.005
2.21,-0.364,1.312,-0.241
2.22,-0.092,0.885,-0.038
2.23,-0.16,1.049,0.161
2.24,-0.129,0.86,0.142
2.25,-0.418,0.907,-0.145
2.26,-0.28,1.214,-0.078
2.27,-0.052,0.867,0.082
2.28,-0.172,0.987,0.115
2.29,-0.249,0.731,-0.072
2.3,-0.354,1.229,-0.19
2.31,-0.067,0.863,0.078
2.32,-0.138,1.157,0.116
2.33,-0.115,0.721,0.058
2.34,-0.437,1.093,-0.191
2.35,-0.1,1.113,-0.122
2.36,-0.129,0.789,0.099
2.37,-0.205,1.026,0.146
2.38,-0.226,0.735,-0.141
2.39,-0.274,1.233,-0.196
2.4,-0.08,0.907,0.117
2.41,-0.123,1.006,0.128
2.42,-0.168,0.781,-0.022
2.43,-0.438,1.101,-0.154
2.44,-0.105,1.136,-0.105
2.45,-0.092,0.749,0.129
2.46,-0.169,1.1,0.184
2.47,-0.375,0.751,-0.163
2.48,-0.274,1.18,-0.129
2.49,0.057,0.962,0.088
2.5,-0.218,0.897,0.178
2.51,-0.298,0.886,0.01
2.52,-0.264,1.047,-0.243
2.53,-0.183,1.11,-0.033
2.54,-0.047,0.744,0.215
2.55,-0.226,1.096,0.057
2.56,-0.36,0.76,-0.192
2.57,-0.132,1.228,-0.06
2.58,-0.167,0.87,0.115
2.59,-0.153,0.838,0.196
2.6,-0.258,1.068,-0.103
2.61,-0.397,0.809,-0.143
2.62,-0.115,1.284,0.087
2.63,-0.05,0.783,0.125
2.64,-0.25,0.976,0.032
2.65,-0.292,0.936,-0.112
2.66,-0.256,1.194,-0.066
2.67,-0.157,0.822,0.128
2.68,-0.079,0.803,0.163
2.69,-0.487,1.079,-0.119
2.7,-0.197,0.807,-0.166
2.71,-0.028,1.291,-0.006
2.72,-0.133,0.617,0.153
2.73,-0.26,1.029,0.051
2.74,-0.355,1.019,-0.141
2.75,-0.173,0.962,-0.043
2.76,-0.103,0.997,0.183
2.77,-0.11,0.81,0.101
2.78,-0.424,1.107,-0.195
2.79,-0.158,0.907,-0.062
2.8,-0.172,1.279,0.087
2.81,-0.13,0.639,0.181
2.82,-0.303,1.006,0.006
2.83,-0.352,1.033,-0.188
2.84,-0.028,0.973,0.032
2.85,-0.225,1.112,0.145
2.86,-0.091,0.656,0.111
2.87,-0.388,1.24,-0.198
2.88,-0.19,0.928,-0.03
2.89,-0.095,1.168,0.063
2.9,-0.131,0.719,0.152
2.91,-0.327,0.974,0.013
2.92,-0.33,1.086,-0.206
2.93,-0.1,0.936,0.054
2.94,-0.203,1.115,0.173
2.95,-0.077,0.592,0.055
2.96,-0.44,1.28,-0.197
2.97,-0.107,0.957,-0.039
2.98,-0.141,1.031,0.133
2.99,-0.16,0.827,0.157
3.0,-0.317,0.895,-0.171
3.01,-0.2,1.058,-0.194
3.02,-0.042,0.956,0.113
3.03,-0.232,1.102,0.12
3.04,-0.192,0.628,0.007
3.05,-0.402,1.301,-0.199
3.06,-0.177,0.894,-0.037
3.07,-0.171,0.99,0.171
3.08,-0.087,0.92,0.12
3.09,-0.369,0.819,-0.183
3.1,-0.201,1.082,-0.082
3.11,0.005,0.922,0.079
3.12,-0.262,1.001,0.12
3.13,-0.189,0.725,-0.046
3.14,-0.325,1.298,-0.203
3.15,-0.192,0.829,0.055
3.16,-0.041,1.109,0.15
3.17,-0.112,0.767,0.009
3.18,-0.487,1.005,-0.123
3.19,-0.079,1.156,-0.058
3.2,-0.148,0.79,0.075
3.21,-0.198,1.039,0.155
3.22,-0.304,0.737,-0.122
3.23,-0.309,1.243,-0.179
3.24,-0.091,0.964,0.093
3.25,-0.103,0.922,0.135
3.26,-0.211,0.846,0.033
3.27,-0.307,1.091,-0.218
3.28,-0.167,1.114,-0.053
3.29,-0.149,0.759,0.159
3.3,-0.153,1.086,0.113
3.31,-0.348,0.743,-0.188
3.32,-0.196,1.193,-0.119
3.33,-0.053,0.97,0.072
3.34,-0.131,0.846,0.155
3.35,-0.301,0.941,0.005
3.36,-0.333,0.969,-0.175
3.37,-0.117,1.174,0.029
3.38,-0.098,0.782,0.201
3.39,-0.233,1.047,0.097
3.4,-0.308,0.801,-0.211
3.41,-0.236,1.19,-0.068
3.42,-0.052,0.908,0.091
3.43,-0.148,0.817,0.16
3.44,-0.372,1.012,-0.031
3.45,-0.238,0.847,-0.138
3.46,-0.169,1.275,0.091
3.47,-0.102,0.701,0.15
3.48,-0.17,1.033,0.025
3.49,-0.364,0.954,-0.177
3.5,-0.257,1.085,-0.054
3.51,-0.136,0.933,0.121
3.52,-0.069,0.781,0.138
3.53,-0.397,1.095,-0.156
3.54,-0.296,0.837,-0.087
3.55,-0.066,1.291,0.049
3.56,-0.098,0.651,0.097
3.57,-0.278,1.001,0.015
3.58,-0.257,1.048,-0.283
3.59,-0.13,0.922,-0.04
3.6,-0.209,1.032,0.201
3.61,-0.084,0.724,0.086
3.62,-0.435,1.143,-0.167
3.63,-0.179,0.908,-0.047
3.64,-0.146,1.225,0.105
3.65,-0.09,0.656,0.148
3.66,-0.323,0.977,-0.033
3.67,-0.323,1.03,-0.22
3.68,-0.033,0.982,0.003
3.69,-0.199,1.135,0.13
3.7,-0.086,0.652,0.104
3.71,-0.432,1.246,-0.179
3.72,-0.232,0.915,-0.042
3.73,-0.102,1.122,0.086
3.74,-0.121,0.777,0.098
3.75,-0.353,0.948,-0.077
3.76,-0.255,1.043,-0.207
3.77,-0.119,0.937,0.126
3.78,-0.194,1.135,0.14
3.79,-0.096,0.642,-0.003
3.8,-0.515,1.248,-0.17
3.81,-0.117,0.877,-0.068
3.82,-0.109,1.046,0.094
3.83,-0.173,0.886,0.158
3.84,-0.375,0.824,-0.161
3.85,-0.123,1.116,-0.204
3.86,-0.08,0.95,0.086
3.87,-0.121,1.022,0.106
3.88,-0.169,0.678,0.012
3.89,-0.439,1.274,-0.21
3.9,-0.121,0.871,-0.009
3.91,-0.092,1.171,0.139
3.92,-0.106,0.747,0.079
3.93,-0.445,1.013,-0.187
3.94,-0.127,1.134,-0.057
3.95,-0.078,0.899,0.089
3.96,-0.156,0.954,0.165
3.97,-0.268,0.734,-0.078
3.98,-0.356,1.24,-0.192
3.99,-0.168,0.889,0.095
4.0,-0.155,1.063,0.122
4.01,-0.125,0.785,0.051
4.02,-0.438,1.067,-0.181
4.03,-0.174,1.123,-0.087
4.04,-0.073,0.77,0.103
4.05,-0.164,1.07,0.125
4.06,-0.318,0.699,-0.142
4.07,-0.237,1.186,-0.115
4.08,-0.108,0.984,0.061
4.09,-0.154,0.866,0.096
4.1,-0.166,0.884,0.039
4.11,-0.401,1.053,-0.176
4.12,-0.145,1.12,-0.015
4.13,-0.097,0.754,0.117
4.14,-0.2,1.064,0.122
4.15,-0.371,0.749,-0.153
4.16,-0.207,1.223,-0.077
4.17,-0.117,1.026,0.1
4.18,-0.188,0.738,0.141
4.19,-0.171,1.021,-0.007
4.2,-0.421,0.981,-0.197
4.21,-0.133,1.105,0.008
4.22,-0.007,0.816,0.152
4.23,-0.255,1.044,0.045
4.24,-0.316,0.787,-0.192
4.25,-0.094,1.215,-0.068
4.26,-0.136,0.947,0.122
4.27,-0.139,0.716,0.169
4.28,-0.268,1.096,-0.031
4.29,-0.354,0.833,-0.18
4.3,-0.131,1.247,0.114
4.31,-0.05,0.751,0.148
4.32,-0.235,0.987,-0.027
4.33,-0.348,0.935,-0.189
4.34,-0.104,1.102,-0.083
4.35,-0.145,0.952,0.122
4.36,-0.167,0.745,0.185
4.37,-0.327,1.147,-0.158
4.38,-0.289,0.824,-0.119
4.39,-0.081,1.306,0.079
4.4,-0.116,0.7,0.093
4.41,-0.266,0.957,-0.028
4.42,-0.288,1.067,-0.235
4.43,-0.103,0.979,-0.052
4.44,-0.156,1.013,0.138
4.45,-0.043,0.719,0.086
4.46,-0.476,1.175,-0.171
4.47,-0.252,0.874,-0.005
4.48,-0.169,1.238,0.117
4.49,-0.125,0.703,0.146
4.5,-0.297,0.932,-0.039
4.51,-0.291,1.093,-0.213
4.52,-0.107,0.919,0.017
4.53,-0.135,1.123,0.171
4.54,-0.049,0.65,0.039
4.55,-0.503,1.267,-0.181
4.56,-0.098,0.893,-0.065
4.57,-0.111,1.092,0.066
4.58,-0.171,0.791,0.154
4.59,-0.322,0.873,-0.109
4.6,-0.289,1.135,-0.133
4.61,-0.116,0.958,0.097
4.62,-0.121,1.092,0.072
4.63,-0.122,0.627,0.031
4.64,-0.474,1.314,-0.164
4.65,-0.087,0.896,-0.029
4.66,-0.156,1.003,0.108
4.67,-0.109,0.886,0.121
4.68,-0.363,0.856,-0.154
4.69,-0.264,1.181,-0.137
4.7,-0.003,0.892,0.156
4.71,-0.205,1.063,0.145
4.72,-0.28,0.724,0.001
4.73,-0.375,1.308,-0.241
4.74,-0.058,0.791,-0.011
4.75,-0.111,1.111,0.23
4.76,-0.189,0.771,0.034
4.77,-0.395,0.992,-0.202
4.78,-0.099,1.201,-0.06
4.79,-0.151,0.79,0.143
4.8,-0.207,1.0,0.162
4.81,-0.233,0.79,-0.144
4.82,-0.335,1.218,-0.172
4.83,-0.113,0.883,0.148
4.84,-0.097,1.023,0.139
4.85,-0.285,0.841,-0.0
4.86,-0.34,0.997,-0.213
4.87,-0.115,1.12,-0.061
4.88,-0.144,0.792,0.15
4.89,-0.125,1.073,0.089
4.9,-0.342,0.753,-0.16
4.91,-0.288,1.256,-0.038
4.92,-0.073,0.901,0.075
4.93,-0.186,0.842,0.183
4.94,-0.255,0.955,-0.04
4.95,-0.356,0.926,-0.164
4.96,-0.154,1.213,0.02
4.97,-0.032,0.776,0.089
4.98,-0.157,1.038,0.059
4.99,-0.311,0.88,-0.204
5.0,-0.196,1.182,-0.071
5.01,-0.123,0.888,0.15
5.02,-0.178,0.849,0.17
5.03,-0.4,0.987,-0.083
5.04,-0.247,0.852,-0.143
5.05,-0.115,1.318,0.091
5.06,-0.111,0.694,0.149
5.07,-0.209,1.011,0.03
5.08,-0.398,0.955,-0.141
5.09,-0.156,1.12,-0.052
5.1,-0.143,0.881,0.123
5.11,-0.168,0.784,0.127
5.12,-0.368,1.115,-0.174
5.13,-0.184,0.831,-0.122
5.14,-0.117,1.282,0.159
5.15,-0.121,0.639,0.146
5.16,-0.334,1.023,-0.046
5.17,-0.345,0.992,-0.161
5.18,-0.06,1.019,0.016
5.19,-0.164,1.025,0.133
5.2,-0.107,0.719,0.082
5.21,-0.491,1.212,-0.175
5.22,-0.174,0.9,-0.027
5.23,-0.115,1.2,0.073
5.24,-0.108,0.65,0.113
5.25,-0.302,1.021,-0.077
5.26,-0.252,1.069,-0.23
5.27,-0.108,0.958,0.104
5.28,-0.088,1.077,0.154
5.29,-0.233,0.681,0.005
5.3,-0.478,1.249,-0.143
5.31,-0.06,0.899,-0.03
5.32,-0.21,1.08,0.094
5.33,-0.148,0.8,0.189
5.34,-0.406,0.969,-0.173
5.35,-0.27,1.07,-0.156
5.36,0.092,1.008,0.108
5.37,-0.234,1.0,0.146
5.38,-0.289,0.643,0.003
5.39,-0.245,1.312,-0.226
5.4,-0.095,0.897,-0.011
5.41,-0.25,1.041,0.233
5.42,-0.039,0.843,0.008
5.43,-0.453,0.94,-0.192
5.44,-0.195,1.179,0.003
5.45,-0.092,0.869,0.137
5.46,-0.23,0.992,0.103
5.47,-0.167,0.727,-0.08
5.48,-0.345,1.289,-0.14
5.49,-0.161,0.908,0.066
5.5,-0.095,0.98,0.155
5.51,-0.202,0.87,-0.023
5.52,-0.398,0.957,-0.166
5.53,-0.083,1.205,-0.083
5.54,-0.134,0.755,0.162
5.55,-0.2,1.039,0.158
5.56,-0.317,0.729,-0.206
5.57,-0.235,1.288,-0.105
5.58,-0.001,0.877,0.08
5.59,-0.203,0.936,0.142
5.6,-0.262,0.817,-0.018
5.61,-0.308,1.092,-0.206
5.62,-0.113,1.112,-0.018
5.63,-0.17,0.768,0.159
5.64,-0.137,1.04,0.057
5.65,-0.318,0.804,-0.204
5.66,-0.263,1.234,-0.039
5.67,-0.025,0.84,0.131
5.68,-0.229,0.92,0.165
5.69,-0.332,0.93,-0.066
5.7,-0.246,0.968,-0.18
5.71,-0.178,1.195,0.081
5.72,-0.097,0.725,0.15
5.73,-0.159,1.071,-0.002
5.74,-0.435,0.883,-0.142
5.75,-0.242,1.144,0.019
5.76,-0.135,0.822,0.128
5.77,-0.136,0.886,0.121
5.78,-0.417,1.028,-0.149
5.79,-0.261,0.853,-0.086
5.8,-0.091,1.292,0.071
5.81,-0.12,0.6,0.125
5.82,-0.209,1.082,0.035
5.83,-0.36,0.972,-0.214
5.84,-0.208,1.093,0.004
5.85,-0.1,0.904,0.151
5.86,-0.127,0.825,0.075
5.87,-0.441,1.146,-0.167
5.88,-0.102,0.885,-0.03
5.89,-0.187,1.222,0.113
5.9,-0.151,0.636,0.162
5.91,-0.303,1.09,-0.054
5.92,-0.29,0.914,-0.248
5.93,-0.045,1.021,0.033
5.94,-0.129,1.016,0.182
5.95,-0.216,0.704,0.023
5.96,-0.476,1.207,-0.19
5.97,-0.055,0.882,-0.09
5.98,-0.247,1.136,0.103
5.99,-0.1,0.707,0.196
6.0,-0.356,1.061,-0.157
6.01,-0.262,0.961,-0.183
6.02,-0.028,1.069,0.123
6.03,-0.132,0.974,0.103
6.04,-0.252,0.65,0.006
6.05,-0.399,1.322,-0.182
6.06,-0.102,0.853,-0.054
6.07,-0.222,1.066,0.154
6.08,-0.012,0.814,0.132
6.09,-0.439,1.052,-0.192
6.1,-0.304,1.045,-0.047
6.11,0.031,0.966,0.041
6.12,-0.157,0.98,0.063
6.13,-0.24,0.726,0.037
6.14,-0.31,1.378,-0.182
6.15,-0.184,0.824,-0.011
6.16,-0.104,1.05,0.201
6.17,-0.103,0.772,0.039
6.18,-0.492,0.988,-0.17
6.19,-0.107,1.152,-0.064
6.2,-0.079,0.872,0.067
6.21,-0.231,1.038,0.176
6.22,-0.247,0.72,-0.105
6.23,-0.326,1.251,-0.179
6.24,-0.071,0.92,0.059
6.25,-0.062,0.966,0.142
6.26,-0.231,0.854,0.014
6.27,-0.386,1.024,-0.158
6.28,-0.104,1.166,-0.069
6.29,-0.046,0.797,0.108
6.3,-0.254,1.088,0.154
6.31,-0.264,0.722,-0.145
6.32,-0.342,1.234,-0.082
6.33,-0.065,0.96,0.082
6.34,-0.096,0.808,0.109
6.35,-0.358,0.931,0.045
6.36,-0.303,1.007,-0.199
6.37,-0.164,1.057,0.028
6.38,-0.064,0.867,0.156
6.39,-0.17,0.969,0.023
6.4,-0.396,0.821,-0.138
6.41,-0.188,1.328,-0.064
6.42,-0.067,0.757,0.105
6.43,-0.215,0.948,0.195
6.44,-0.316,0.894,-0.094
6.45,-0.23,0.94,-0.188
6.46,-0.12,1.211,0.106
6.47,-0.132,0.734,0.131
6.48,-0.264,1.045,0.013
6.49,-0.255,0.921,-0.194
6.5,-0.208,1.218,-0.054
6.51,-0.141,0.709,0.155
6.52,-0.143,0.969,0.157
6.53,-0.376,0.956,-0.183
6.54,-0.228,0.894,-0.12
6.55,-0.057,1.295,0.081
6.56,-0.092,0.602,0.065
6.57,-0.296,1.08,0.024
6.58,-0.292,0.95,-0.225
6.59,-0.085,1.118,-0.014
6.6,-0.196,0.821,0.19
6.61,-0.133,0.859,0.084
6.62,-0.439,1.038,-0.149
6.63,-0.231,0.872,-0.046
6.64,-0.057,1.26,0.064
6.65,-0.114,0.592,0.088
6.66,-0.305,1.09,0.004
6.67,-0.27,0.959,-0.217
6.68,-0.059,1.074,0.007
6.69,-0.128,0.951,0.192
6.7,-0.156,0.783,0.018
6.71,-0.435,1.151,-0.195
6.72,-0.083,0.887,-0.044
6.73,-0.208,1.156,0.133
6.74,-0.136,0.656,0.157
6.75,-0.342,1.121,-0.143
6.76,-0.272,0.931,-0.139
6.77,-0.104,1.067,0.133
6.78,-0.091,0.969,0.111
6.79,-0.189,0.736,-0.046
6.8,-0.443,1.325,-0.164
6.81,-0.139,0.838,-0.006
6.82,-0.258,1.128,0.171
6.83,-0.084,0.759,0.126
6.84,-0.467,1.046,-0.18
6.85,-0.243,1.012,-0.048
6.86,-0.07,1.044,0.082
6.87,-0.106,0.921,0.1
6.88,-0.276,0.726,-0.002
6.89,-0.335,1.322,-0.208
6.9,-0.156,0.835,0.025
6.91,-0.186,1.127,0.171
6.92,-0.163,0.739,0.048
6.93,-0.421,1.05,-0.199
6.94,-0.102,1.14,-0.066
6.95,-0.101,0.84,0.098
6.96,-0.245,0.988,0.182
6.97,-0.277,0.739,-0.132
6.98,-0.252,1.208,-0.183
6.99,-0.077,0.968,0.092
7.0,-0.162,1.012,0.167
7.01,-0.228,0.806,-0.001
7.02,-0.38,1.049,-0.155
7.03,-0.173,1.132,-0.007
7.04,-0.107,0.786,0.161
7.05,-0.176,1.068,0.091
7.06,-0.332,0.7,-0.197
7.07,-0.182,1.25,-0.093
7.08,-0.071,1.006,0.067
7.09,-0.177,0.804,0.143
7.1,-0.22,0.95,0.018
7.11,-0.454,1.037,-0.157
7.12,-0.067,1.115,-0.026
7.13,-0.093,0.81,0.201
7.14,-0.243,1.036,0.081
7.15,-0.348,0.792,-0.228
7.16,-0.142,1.267,-0.077
7.17,-0.16,0.83,0.119
7.18,-0.162,0.849,0.213
7.19,-0.363,0.831,-0.113
7.2,-0.28,0.966,-0.137
7.21,-0.034,1.199,0.079
7.22,-0.215,0.708,0.183
7.23,-0.243,1.058,0.013
7.24,-0.374,0.917,-0.186
7.25,-0.162,1.194,-0.005
7.26,-0.136,0.823,0.165
7.27,-0.191,0.915,0.079
7.28,-0.322,0.909,-0.182
7.29,-0.211,1.012,-0.024
7.3,-0.138,1.151,0.13
7.31,-0.116,0.648,0.128
7.32,-0.305,1.112,-0.073
7.33,-0.38,0.839,-0.16
7.34,-0.116,1.16,0.033
7.35,-0.063,0.896,0.123
7.36,-0.128,0.833,-0.004
7.37,-0.37,1.093,-0.159
7.38,-0.102,0.979,-0.106
7.39,-0.159,1.102,0.078
7.4,-0.064,0.671,0.158
7.41,-0.456,1.164,-0.11
7.42,-0.288,0.843,-0.17
7.43,-0.04,1.187,0.054
7.44,-0.094,0.842,0.1
7.45,-0.296,0.883,0.055
7.46,-0.357,1.182,-0.184
7.47,-0.247,0.847,-0.018
7.48,-0.158,1.174,0.18
7.49,-0.115,0.682,0.055
7.5,-0.371,1.111,-0.221
7.51,-0.18,0.943,-0.102
7.52,-0.098,1.102,0.126
7.53,-0.116,0.83,0.147
7.54,-0.25,0.836,-0.049
7.55,-0.432,1.25,-0.203
7.56,-0.045,0.833,0.018
7.57,-0.159,1.177,0.154
7.58,-0.16,0.649,0.07
7.59,-0.41,1.141,-0.156
7.6,-0.188,1.05,-0.056
7.61,-0.099,0.953,0.115
7.62,-0.118,0.915,0.139
7.63,-0.347,0.779,-0.091
7.64,-0.27,1.231,-0.169
7.65,-0.099,0.942,0.1
7.66,-0.2,1.094,0.141
7.67,-0.144,0.658,0.056
7.68,-0.476,1.185,-0.164
7.69,-0.159,1.045,-0.073
7.7,-0.074,0.832,0.15
7.71,-0.15,1.017,0.141
7.72,-0.37,0.719,-0.209
7.73,-0.21,1.278,-0.05
7.74,-0.075,0.937,0.077
7.75,-0.159,0.954,0.127
7.76,-0.189,0.805,0.041
7.77,-0.409,1.121,-0.226
7.78,-0.169,1.024,0.028
7.79,0.005,0.933,0.118
7.8,-0.29,1.01,0.057
7.81,-0.318,0.727,-0.141
7.82,-0.165,1.362,-0.077
7.83,-0.048,0.759,0.07
7.84,-0.166,0.964,0.151
7.85,-0.31,0.876,-0.089
7.86,-0.281,0.978,-0.15
7.87,-0.144,1.234,0.075
7.88,-0.107,0.707,0.139
7.89,-0.229,1.047,0.024
7.9,-0.389,0.912,-0.141
7.91,-0.181,1.255,-0.092
7.92,-0.093,0.728,0.143
7.93,-0.159,0.951,0.164
7.94,-0.361,0.969,-0.163
7.95,-0.248,0.896,-0.104
7.96,-0.043,1.27,0.059
7.97,-0.158,0.585,0.134
7.98,-0.271,1.103,0.064
7.99,-0.32,0.956,-0.22
8.0,-0.189,1.033,-0.057
8.01,-0.028,0.84,0.197
8.02,-0.234,0.984,0.076
8.03,-0.361,0.879,-0.166
8.04,-0.059,1.151,-0.058
8.05,-0.244,1.019,0.071
8.06,-0.195,0.705,0.22
8.07,-0.343,1.148,-0.108
8.08,-0.378,0.822,-0.147
8.09,-0.113,1.24,0.11
8.1,-0.026,0.803,0.076
8.11,-0.245,0.893,0.006
8.12,-0.313,1.081,-0.163
8.13,-0.154,0.983,-0.077
8.14,-0.224,1.021,0.117
8.15,-0.116,0.705,0.162
8.16,-0.453,1.129,-0.157
8.17,-0.256,0.813,-0.127
8.18,-0.01,1.288,0.091
8.19,-0.106,0.683,0.062
8.2,-0.232,0.894,0.059
8.21,-0.295,1.235,-0.238
8.22,-0.171,0.789,-0.044
8.23,-0.099,1.103,0.203
8.24,-0.17,0.699,0.083
8.25,-0.455,1.167,-0.196
8.26,-0.164,0.987,-0.013
8.27,-0.174,1.116,0.112
8.28,-0.177,0.77,0.163
8.29,-0.239,0.904,-0.057
8.3,-0.334,1.164,-0.254
8.31,-0.062,0.836,0.071
8.32,-0.105,1.205,0.094
8.33,-0.115,0.617,0.059
8.34,-0.44,1.208,-0.162
8.35,-0.131,1.032,-0.071
8.36,-0.156,1.007,0.122
8.37,-0.183,0.89,0.173
8.38,-0.358,0.807,-0.122
8.39,-0.208,1.199,-0.192
8.4,-0.12,0.953,0.09
8.41,-0.165,1.058,0.106
8.42,-0.082,0.676,0.013
8.43,-0.526,1.289,-0.119
8.44,-0.17,0.962,-0.016
8.45,-0.106,0.911,0.13
8.46,-0.258,0.988,0.154
8.47,-0.391,0.74,-0.144
8.48,-0.25,1.242,-0.118
8.49,-0.058,0.928,0.088
8.5,-0.136,0.958,0.086
8.51,-0.24,0.753,0.067
8.52,-0.361,1.185,-0.212
8.53,-0.151,0.989,-0.064
8.54,-0.045,0.845,0.134
8.55,-0.207,1.038,0.083
8.56,-0.359,0.813,-0.15
8.57,-0.247,1.281,-0.081
8.58,-0.069,0.773,0.101
8.59,-0.131,1.017,0.127
8.6,-0.278,0.83,-0.052
8.61,-0.308,0.999,-0.178
8.62,-0.059,1.156,0.025
8.63,-0.146,0.771,0.179
8.64,-0.199,1.016,0.078
8.65,-0.395,0.847,-0.202
8.66,-0.117,1.245,-0.079
8.67,-0.18,0.804,0.181
8.68,-0.226,0.935,0.173
8.69,-0.294,0.891,-0.13
8.7,-0.314,0.959,-0.172
8.71,-0.012,1.176,0.09
8.72,-0.056,0.703,0.092
8.73,-0.27,1.023,0.046
8.74,-0.384,0.906,-0.13
8.75,-0.139,1.217,-0.068
8.76,-0.103,0.783,0.136
8.77,-0.185,0.935,0.121
8.78,-0.375,0.934,-0.177
8.79,-0.178,0.938,-0.111
8.8,0.002,1.267,0.1
8.81,-0.184,0.584,0.139
8.82,-0.198,1.09,-0.016
8.83,-0.336,0.907,-0.244
8.84,-0.1,1.182,0.027
8.85,-0.011,0.82,0.158
8.86,-0.305,0.939,0.03
8.87,-0.319,0.941,-0.181
8.88,-0.138,1.104,-0.034
8.89,-0.201,1.005,0.123
8.9,-0.129,0.692,0.141
8.91,-0.295,1.158,-0.117
8.92,-0.295,0.84,-0.19
8.93,-0.05,1.252,0.083
8.94,-0.05,0.774,0.089
8.95,-0.241,0.932,0.016
8.96,-0.302,1.051,-0.168
8.97,-0.238,0.951,-0.045
8.98,-0.312,1.153,-0.107
8.99,-0.254,0.827,-0.148
9.0,-0.125,1.332,0.103
9.01,-0.149,0.666,0.128
9.02,-0.184,1.013,0.002
9.03,-0.436,1.031,-0.161
9.04,-0.184,0.985,-0.053
9.05,-0.157,0.984,0.15
9.06,-0.115,0.747,0.095
9.07,-0.368,1.144,-0.215
9.08,-0.172,0.868,-0.072
9.09,-0.105,1.258,0.096
9.1,-0.151,0.638,0.176
9.11,-0.241,0.985,-0.011
9.12,-0.391,1.068,-0.255
9.13,-0.123,0.928,0.013
9.14,-0.113,1.113,0.142
9.15,-0.03,0.667,0.049
9.16,-0.501,1.229,-0.152
9.17,-0.172,0.896,0.001
9.18,-0.191,1.175,0.08
9.19,-0.123,0.731,0.113
9.2,-0.269,0.953,-0.055
9.21,-0.336,1.083,-0.195
9.22,-0.081,0.925,0.052
9.23,-0.098,1.074,0.094
9.24,-0.153,0.659,0.013
9.25,-0.461,1.296,-0.176
9.26,-0.074,0.916,-0.052
9.27,-0.144,1.049,0.157
9.28,-0.2,0.836,0.169
9.29,-0.343,0.953,-0.195
9.3,-0.23,1.112,-0.188
9.31,-0.015,0.917,0.108
9.32,-0.148,1.053,0.133
9.33,-0.247,0.669,0.027
9.34,-0.379,1.259,-0.222
9.35,-0.148,0.866,-0.023
9.36,-0.091,1.033,0.135
9.37,-0.124,0.856,0.062
9.38,-0.384,0.91,-0.147
9.39,-0.229,1.299,-0.025
9.4,-0.045,0.764,0.101
9.41,-0.194,1.04,0.137
9.42,-0.254,0.764,-0.067
9.43,-0.298,1.179,-0.208
9.44,-0.055,0.988,0.082
9.45,-0.17,0.941,0.162
9.46,-0.17,0.883,0.021
9.47,-0.443,0.951,-0.162
9.48,-0.137,1.262,-0.073
9.49,-0.112,0.719,0.14
9.5,-0.189,1.059,0.165
9.51,-0.294,0.751,-0.155
9.52,-0.238,1.092,-0.145
9.53,-0.042,1.09,0.09
9.54,-0.125,0.761,0.128
9.55,-0.241,0.995,-0.001
9.56,-0.354,0.918,-0.194
9.57,-0.111,1.217,-0.029
9.58,-0.08,0.834,0.202
9.59,-0.255,1.05,0.035
9.6,-0.319,0.786,-0.184
9.61,-0.157,1.268,-0.061
9.62,-0.134,0.82,0.085
9.63,-0.168,0.869,0.18
9.64,-0.287,1.021,-0.108
9.65,-0.361,0.91,-0.158
9.66,-0.054,1.197,0.112
9.67,-0.102,0.709,0.15
9.68,-0.3,1.036,0.034
9.69,-0.275,0.89,-0.209
9.7,-0.192,1.158,-0.046
9.71,-0.1,0.849,0.153
9.72,-0.083,0.873,0.13
9.73,-0.481,1.062,-0.173
9.74,-0.205,0.912,-0.063
9.75,-0.108,1.258,0.058
9.76,-0.196,0.588,0.144
9.77,-0.211,1.111,0.008
9.78,-0.349,0.921,-0.254
9.79,-0.159,1.072,0.019
9.8,-0.051,0.996,0.156
9.81,-0.146,0.726,0.07
9.82,-0.454,1.161,-0.151
9.83,-0.042,0.906,-0.076
9.84,-0.208,1.172,0.105
9.85,-0.201,0.655,0.193
9.86,-0.233,1.083,-0.124
9.87,-0.352,0.926,-0.238
9.88,-0.163,1.045,0.129
9.89,-0.078,1.01,0.083
9.9,-0.224,0.683,-0.014
9.91,-0.275,1.291,-0.209
9.92,-0.105,0.859,-0.014
9.93,-0.259,1.141,0.157
9.94,-0.058,0.73,0.14
9.95,-0.4,1.016,-0.155
9.96,-0.25,1.044,-0.102
9.97,-0.062,1.032,0.092
9.98,-0.167,0.939,0.107
9.99,-0.193,0.712,0.005
10.0,-0.407,1.333,-0.195
10.01,-0.102,0.814,-0.026
10.02,-0.167,1.105,0.177
10.03,-0.095,0.743,0.094
10.04,-0.44,0.995,-0.195
10.05,-0.218,1.105,-0.063
10.06,-0.042,0.945,0.086
10.07,-0.185,1.01,0.109
10.08,-0.265,0.71,-0.034
10.09,-0.38,1.264,-0.174
10.1,-0.073,0.912,0.03
10.11,-0.077,1.057,0.104
10.12,-0.13,0.752,0.035
10.13,-0.399,1.046,-0.141
10.14,-0.107,1.173,-0.062
10.15,-0.215,0.789,0.137
10.16,-0.175,1.029,0.123
10.17,-0.257,0.732,-0.144
10.18,-0.359,1.247,-0.124
10.19,-0.051,0.918,0.039
10.2,-0.138,0.898,0.123
10.21,-0.234,0.885,0.047
10.22,-0.411,1.04,-0.157
10.23,-0.141,1.114,-0.068
10.24,-0.139,0.777,0.165
10.25,-0.146,1.104,0.115
10.26,-0.322,0.722,-0.164
10.27,-0.351,1.18,-0.046
10.28,-0.017,1.014,0.08
10.29,-0.14,0.827,0.122
10.3,-0.317,0.954,-0.011
10.31,-0.233,1.003,-0.225
10.32,-0.131,1.203,0.007
10.33,-0.218,0.721,0.183
10.34,-0.098,1.01,0.064
10.35,-0.318,0.871,-0.246
10.36,-0.215,1.209,-0.024
10.37,-0.106,0.876,0.069
10.38,-0.115,0.801,0.161
10.39,-0.285,1.089,-0.032
10.4,-0.346,0.956,-0.15
10.41,-0.095,1.206,0.144
10.42,-0.156,0.745,0.162
10.43,-0.297,0.998,0.009
10.44,-0.364,0.899,-0.169
10.45,-0.117,1.248,-0.054
10.46,-0.15,0.764,0.131
10.47,-0.143,0.929,0.127
10.48,-0.363,0.979,-0.2
10.49,-0.296,0.945,-0.061
10.5,-0.027,1.221,0.076
10.51,-0.131,0.626,0.126
10.52,-0.277,1.108,-0.004
10.53,-0.292,0.924,-0.213
10.54,-0.197,1.103,-0.006
10.55,-0.139,0.876,0.191
10.56,-0.156,0.828,0.063
10.57,-0.403,1.073,-0.18
10.58,-0.158,0.973,-0.041
10.59,-0.179,1.129,0.08
10.6,-0.153,0.628,0.14
10.61,-0.239,1.153,-0.105
10.62,-0.228,0.871,-0.232
10.63,-0.07,1.179,0.114
10.64,-0.097,0.879,0.101
10.65,-0.208,0.757,0.056
10.66,-0.411,1.236,-0.205
10.67,-0.031,0.881,-0.123
10.68,-0.208,1.111,0.171
10.69,-0.143,0.678,0.193
10.7,-0.43,1.106,-0.123
10.71,-0.241,0.876,-0.161
10.72,0.004,1.145,0.075
10.73,-0.131,0.921,0.13
10.74,-0.307,0.718,0.039
10.75,-0.302,1.271,-0.253
10.76,-0.114,0.807,-0.043
10.77,-0.158,1.186,0.172
10.78,-0.078,0.698,0.071
10.79,-0.552,1.09,-0.137
10.8,-0.119,1.019,-0.093
10.81,-0.037,0.983,0.065
10.82,-0.232,0.938,0.155
10.83,-0.187,0.769,-0.04
10.84,-0.381,1.217,-0.267
10.85,-0.129,0.817,0.052
10.86,-0.098,1.21,0.141
10.87,-0.159,0.731,0.034
10.88,-0.444,1.088,-0.145
10.89,-0.136,1.113,-0.08
10.9,-0.07,0.867,0.121
10.91,-0.173,1.009,0.13
10.92,-0.251,0.726,-0.136
10.93,-0.298,1.206,-0.144
10.94,-0.145,0.954,0.127
10.95,-0.17,1.039,0.128
10.96,-0.155,0.738,0.007
10.97,-0.476,1.125,-0.141
10.98,-0.101,1.112,-0.065
10.99,-0.112,0.793,0.129
11.0,-0.209,1.061,0.151
11.01,-0.3,0.732,-0.188
11.02,-0.226,1.197,-0.163
11.03,-0.046,0.978,0.136
11.04,-0.152,0.917,0.147
11.05,-0.31,0.823,0.004
11.06,-0.307,1.075,-0.169
11.07,-0.078,1.152,-0.034
11.08,-0.221,0.741,0.209
11.09,-0.117,1.079,0.094
11.1,-0.42,0.77,-0.205
11.11,-0.204,1.229,-0.014
11.12,-0.065,0.957,0.124
11.13,-0.307,0.815,0.148
11.14,-0.245,0.939,-0.03
11.15,-0.305,0.952,-0.211
11.16,-0.229,1.245,0.098
11.17,-0.02,0.719,0.134
11.18,-0.253,1.043,-0.026
11.19,-0.371,0.879,-0.14
11.2,-0.145,1.187,-0.085
11.21,-0.104,0.786,0.096
11.22,-0.063,1.049,0.111
11.23,-0.356,0.869,-0.218
11.24,-0.239,0.957,-0.03
11.25,-0.097,1.187,0.075
11.26,-0.106,0.658,0.113
11.27,-0.354,1.096,0.008
11.28,-0.288,0.851,-0.197
11.29,-0.213,1.198,-0.007
11.3,-0.138,0.804,0.18
11.31,-0.126,0.955,0.064
11.32,-0.412,0.962,-0.205
11.33,-0.116,0.995,-0.089
11.34,-0.093,1.146,0.062
11.35,-0.169,0.631,0.169
11.36,-0.264,1.117,-0.048
11.37,-0.337,0.855,-0.154
11.38,-0.063,1.204,0.034
11.39,-0.162,0.841,0.157
11.4,-0.186,0.828,0.033
11.41,-0.364,1.117,-0.158
11.42,-0.092,0.954,-0.07
11.43,-0.142,1.072,0.111
11.44,-0.14,0.717,0.189
11.45,-0.366,1.119,-0.122
11.46,-0.307,0.821,-0.141
11.47,-0.129,1.189,0.136
11.48,-0.147,0.881,0.131
11.49,-0.219,0.815,0.005
11.5,-0.455,1.203,-0.176
11.51,-0.082,0.89,-0.07
11.52,-0.162,1.1,0.128
11.53,-0.075,0.736,0.158
11.54,-0.493,1.118,-0.155
11.55,-0.298,0.896,-0.111
11.56,-0.01,1.16,0.038
11.57,-0.135,0.839,0.129
11.58,-0.31,0.793,0.014
11.59,-0.365,1.266,-0.224
11.6,-0.059,0.822,0.001
11.61,-0.162,1.206,0.168
11.62,-0.057,0.691,0.056
11.63,-0.474,1.118,-0.16
11.64,-0.166,1.0,-0.051
11.65,-0.089,1.006,0.119
11.66,-0.223,0.938,0.137
11.67,-0.236,0.763,-0.076
11.68,-0.337,1.217,-0.182
11.69,-0.098,0.869,0.095
11.7,-0.134,1.128,0.133
11.71,-0.108,0.665,0.04
11.72,-0.442,1.174,-0.184
11.73,-0.121,1.037,-0.093
11.74,-0.136,0.878,0.158
11.75,-0.135,1.014,0.1
11.76,-0.356,0.737,-0.127
11.77,-0.298,1.254,-0.129
11.78,-0.053,0.921,0.083
11.79,-0.127,0.974,0.122
11.8,-0.232,0.771,0.019
11.81,-0.347,1.163,-0.202
11.82,-0.099,0.98,-0.059
11.83,-0.131,0.818,0.19
11.84,-0.139,1.088,0.071
11.85,-0.343,0.743,-0.194
11.86,-0.279,1.329,-0.041
11.87,0.01,0.87,0.062
11.88,-0.23,0.886,0.144
11.89,-0.223,0.869,0.001
11.9,-0.313,1.049,-0.225
11.91,-0.156,1.071,0.031
11.92,-0.058,0.806,0.15
11.93,-0.185,1.024,0.044
11.94,-0.379,0.826,-0.165
11.95,-0.088,1.289,-0.103
11.96,-0.107,0.787,0.106
11.97,-0.223,0.932,0.202
11.98,-0.335,0.954,-0.088
11.99,-0.357,0.952,-0.178
12.0,-0.005,1.209,0.056
12.01,-0.115,0.716,0.096
12.02,-0.353,1.054,0.04
12.03,-0.26,0.893,-0.186
12.04,-0.183,1.21,-0.053
12.05,-0.161,0.693,0.227
12.06,-0.05,1.016,0.034
12.07,-0.398,0.872,-0.198
12.08,-0.208,1.075,-0.025
12.09,-0.057,1.097,0.081
12.1,-0.21,0.653,0.141
12.11,-0.284,1.111,-0.008
12.12,-0.198,0.9,-0.209
12.13,-0.158,1.191,0.019
12.14,-0.119,0.745,0.192
12.15,-0.156,0.956,0.015
12.16,-0.422,1.048,-0.214
12.17,-0.149,0.994,-0.099
12.18,-0.2,0.983,0.065
12.19,-0.136,0.697,0.208
12.2,-0.329,1.126,-0.114
12.21,-0.278,0.799,-0.158
12.22,-0.15,1.283,0.094
12.23,-0.058,0.751,0.1
12.24,-0.248,0.884,0.017
12.25,-0.372,1.137,-0.185
12.26,-0.126,0.938,-0.081
12.27,-0.174,1.026,0.158
12.28,-0.132,0.746,0.154
12.29,-0.482,1.138,-0.16
12.3,-0.242,0.818,-0.054
12.31,-0.05,1.263,0.11
12.32,-0.156,0.761,0.133
12.33,-0.339,0.871,0.029
12.34,-0.246,1.188,-0.217
12.35,-0.121,0.87,-0.025
12.36,-0.141,1.094,0.184
12.37,-0.2,0.666,0.076
12.38,-0.538,1.169,-0.182
12.39,-0.068,0.927,-0.068
12.4,-0.074,1.101,0.095
12.41,-0.178,0.827,0.199
12.42,-0.261,0.881,-0.104
12.43,-0.273,1.184,-0.19
12.44,-0.095,0.92,0.143
12.45,-0.1,1.077,0.141
12.46,-0.297,0.673,0.025
12.47,-0.382,1.225,-0.201
12.48,-0.178,0.936,-0.007
12.49,-0.205,1.012,0.163
12.5,-0.084,0.925,0.123
12.51,-0.343,0.841,-0.216
12.52,-0.224,1.25,-0.086
12.53,-0.089,0.84,0.123
12.54,-0.142,1.01,0.148
12.55,-0.251,0.723,0.001
12.56,-0.338,1.239,-0.226
12.57,-0.07,0.912,-0.025
12.58,-0.183,1.001,0.211
12.59,-0.134,0.93,0.072
12.6,-0.385,0.797,-0.192
12.61,-0.192,1.297,-0.082
12.62,0.015,0.762,0.11
12.63,-0.235,1.029,0.148
12.64,-0.286,0.777,-0.039
12.65,-0.291,1.116,-0.167
12.66,-0.131,1.095,0.121
12.67,-0.142,0.845,0.176
12.68,-0.25,0.963,0.001
12.69,-0.41,0.873,-0.145
12.7,-0.148,1.315,-0.042
12.71,-0.067,0.712,0.117
12.72,-0.284,1.041,0.185
12.73,-0.268,0.867,-0.199
12.74,-0.403,1.049,-0.122
12.75,-0.061,1.107,0.119
12.76,-0.124,0.847,0.09
12.77,-0.37,0.957,-0.0
12.78,-0.251,0.922,-0.22
12.79,-0.136,1.186,-0.003
12.8,-0.117,0.749,0.207
12.81,-0.16,1.046,0.007
12.82,-0.421,0.841,-0.161
12.83,-0.08,1.187,-0.099
12.84,-0.11,0.893,0.069
12.85,-0.156,0.974,0.157
12.86,-0.342,0.928,-0.127
12.87,-0.366,1.014,-0.103
12.88,-0.035,1.182,0.047
12.89,-0.11,0.641,0.073
12.9,-0.263,1.089,0.017
12.91,-0.381,0.936,-0.172
12.92,-0.163,1.167,-0.018
12.93,-0.14,0.815,0.186
12.94,-0.148,0.927,0.095
12.95,-0.373,1.033,-0.201
12.96,-0.231,0.973,-0.027
12.97,-0.089,1.134,0.078
12.98,-0.176,0.64,0.153
12.99,-0.37,1.13,-0.052
13.0,-0.283,0.869,-0.205
13.01,-0.113,1.177,0.044
13.02,-0.025,0.789,0.142
13.03,-0.147,0.854,0.035
13.04,-0.399,1.16,-0.161
13.05,-0.187,0.87,-0.004
13.06,-0.162,1.106,0.149
13.07,-0.142,0.705,0.125
13.08,-0.422,1.114,-0.178
13.09,-0.179,0.877,-0.164
13.1,-0.06,1.208,0.085
13.11,-0.194,0.78,0.176
13.12,-0.225,0.82,0.009
13.13,-0.416,1.272,-0.204
13.14,-0.036,0.792,0.018
13.15,-0.177,1.175,0.165
13.16,-0.164,0.66,0.085
13.17,-0.36,1.125,-0.195
13.18,-0.181,1.003,-0.041
13.19,-0.196,1.041,0.116
13.2,-0.125,0.84,0.106
13.21,-0.243,0.831,-0.067
13.22,-0.329,1.247,-0.179
13.23,-0.118,0.791,0.116
13.24,-0.15,1.111,0.15
13.25,-0.14,0.695,0.037
13.26,-0.422,1.218,-0.192
13.27,-0.13,0.987,-0.101
13.28,-0.148,0.914,0.151
13.29,-0.1,0.976,0.147
13.3,-0.329,0.743,-0.21
13.31,-0.285,1.229,-0.091
13.32,0.053,0.938,0.075
13.33,-0.165,0.997,0.093
13.34,-0.203,0.689,0.037
13.35,-0.331,1.226,-0.21
13.36,-0.094,1.043,-0.047
13.37,-0.257,0.85,0.199
13.38,-0.084,1.0,0.033
13.39,-0.385,0.762,-0.233
13.4,-0.193,1.336,-0.061
13.41,-0.049,0.806,0.081
13.42,-0.15,0.924,0.105
13.43,-0.197,0.834,-0.02
13.44,-0.343,1.08,-0.203
13.45,-0.106,1.074,0.051
13.46,-0.138,0.845,0.173
13.47,-0.247,1.016,0.03
13.48,-0.334,0.806,-0.19
13.49,-0.15,1.307,-0.112
13.5,-0.118,0.699,0.132
13.51,-0.156,0.984,0.203
13.52,-0.386,0.885,-0.124
13.53,-0.349,0.945,-0.14
13.54,-0.018,1.225,0.08
13.55,-0.145,0.665,0.121
13.56,-0.338,1.078,0.059
13.57,-0.266,0.889,-0.192
13.58,-0.246,1.137,-0.082
13.59,-0.033,0.833,0.202
13.6,-0.188,0.92,0.076
13.61,-0.417,0.939,-0.164
13.62,-0.093,1.047,-0.064
13.63,-0.186,1.158,0.08
13.64,-0.128,0.597,0.164
13.65,-0.237,1.167,-0.062
13.66,-0.373,0.893,-0.205
13.67,-0.029,1.31,0.09
13.68,-0.106,0.742,0.151
13.69,-0.299,0.966,0.052
13.7,-0.324,1.001,-0.177
13.71,-0.105,1.037,-0.097
13.72,-0.256,0.924,0.164
13.73,-0.091,0.778,0.177
13.74,-0.44,1.128,-0.183
13.75,-0.299,0.751,-0.119
13.76,-0.007,1.328,0.107
13.77,-0.178,0.665,0.106
13.78,-0.289,0.947,0.048
13.79,-0.269,1.128,-0.189
13.8,-0.181,0.864,-0.039
13.81,-0.196,1.042,0.224
13.82,-0.112,0.742,0.038
13.83,-0.464,1.16,-0.219
13.84,-0.208,0.888,-0.014
13.85,-0.094,1.181,0.128
13.86,-0.189,0.714,0.148
13.87,-0.256,0.967,-0.085
13.88,-0.292,1.06,-0.2
13.89,-0.148,0.94,0.099
13.9,-0.075,1.094,0.158
13.91,-0.146,0.675,-0.006
13.92,-0.448,1.265,-0.192
13.93,-0.095,0.912,-0.057
13.94,-0.188,1.075,0.089
13.95,-0.139,0.811,0.191
13.96,-0.289,0.899,-0.153
13.97,-0.328,1.125,-0.129
13.98,0.013,0.944,0.06
13.99,-0.153,1.028,0.082
14.0,-0.223,0.655,0.057
14.01,-0.362,1.322,-0.214
14.02,-0.158,0.834,-0.064
14.03,-0.119,1.016,0.174
14.04,-0.118,0.842,0.096
14.05,-0.526,0.872,-0.17
14.06,-0.086,1.285,-0.098
14.07,-0.06,0.859,0.075
14.08,-0.271,0.97,0.181
14.09,-0.138,0.74,-0.026
14.1,-0.313,1.261,-0.313
14.11,-0.136,0.931,0.083
14.12,-0.122,0.965,0.144
14.13,-0.191,0.877,0.028
14.14,-0.422,0.925,-0.115
14.15,-0.22,1.253,-0.06
14.16,-0.018,0.678,0.073
14.17,-0.214,1.092,0.187
14.18,-0.336,0.742,-0.1
14.19,-0.258,1.052,-0.163
14.2,0.003,1.129,0.038
14.21,-0.154,0.813,0.1
14.22,-0.189,0.969,0.033
14.23,-0.41,0.969,-0.174
14.24,-0.224,1.18,-0.022
14.25,-0.039,0.73,0.15
14.26,-0.205,1.067,0.085
14.27,-0.386,0.786,-0.179
14.28,-0.251,1.118,-0.049
14.29,-0.109,1.077,0.062
14.3,-0.139,0.643,0.15
14.31,-0.231,1.115,0.048
14.32,-0.394,0.907,-0.24
14.33,-0.114,1.111,0.03
14.34,-0.062,0.883,0.188
14.35,-0.251,0.946,0.033
14.36,-0.345,0.887,-0.193
14.37,-0.112,1.143,-0.089
14.38,-0.128,0.979,0.022
14.39,-0.105,0.677,0.177
14.4,-0.314,1.18,-0.083
14.41,-0.304,0.803,-0.189
14.42,-0.112,1.243,0.116
14.43,-0.093,0.751,0.118
14.44,-0.247,0.924,0.04
14.45,-0.338,1.114,-0.166
14.46,-0.22,0.946,-0.064
14.47,-0.18,0.971,0.131
14.48,-0.031,0.772,0.153
14.49,-0.494,1.073,-0.162
14.5,-0.223,0.873,-0.046
14.51,-0.028,1.277,0.058
14.52,-0.177,0.594,0.149
14.53,-0.302,1.075,0.04
14.54,-0.3,0.975,-0.266
14.55,-0.118,1.002,0.018
14.56,-0.075,1.04,0.183
14.57,-0.146,0.708,0.036
14.58,-0.448,1.205,-0.144
14.59,-0.087,0.957,-0.104
14.6,-0.143,1.083,0.09
14.61,-0.172,0.719,0.192
14.62,-0.376,1.056,-0.13
14.63,-0.287,0.945,-0.201
14.64,-0.05,1.104,0.109
14.65,-0.2,0.985,0.13
14.66,-0.225,0.69,0.019
14.67,-0.388,1.319,-0.17
14.68,-0.135,0.825,-0.038
14.69,-0.133,1.163,0.167
14.7,-0.144,0.751,0.115
14.71,-0.364,0.992,-0.174
14.72,-0.295,1.062,-0.088
14.73,0.048,0.984,0.056
14.74,-0.167,0.986,0.132
14.75,-0.253,0.697,0.038
14.76,-0.371,1.303,-0.2
14.77,-0.151,0.839,0.038
14.78,-0.209,1.121,0.179
14.79,-0.072,0.773,0.055
14.8,-0.416,1.008,-0.209
14.81,-0.204,1.124,-0.058
14.82,-0.007,0.859,0.087
14.83,-0.158,1.022,0.112
14.84,-0.224,0.707,-0.067
14.85,-0.349,1.292,-0.152
14.86,-0.185,0.908,0.093
14.87,-0.103,1.037,0.148
14.88,-0.174,0.782,-0.004
14.89,-0.462,1.015,-0.123
14.9,-0.071,1.218,-0.099
14.91,-0.119,0.732,0.088
14.92,-0.211,1.052,0.195
14.93,-0.271,0.768,-0.159
14.94,-0.304,1.182,-0.126
14.95,-0.0,0.991,0.066
14.96,-0.132,0.896,0.106
14.97,-0.309,0.891,0.017
14.98,-0.373,1.006,-0.149
14.99,-0.073,1.158,-0.075
15.0,-0.146,0.742,0.232
15.01,-0.183,1.085,0.11
15.02,-0.384,0.792,-0.2
15.03,-0.184,1.204,-0.102
15.04,-0.095,0.947,0.092
15.05,-0.162,0.785,0.178
15.06,-0.278,0.995,-0.043
15.07,-0.276,0.919,-0.198
15.08,-0.152,1.201,0.012
15.09,-0.163,0.751,0.128
15.1,-0.097,1.031,0.024
15.11,-0.379,0.912,-0.204
15.12,-0.176,1.125,-0.054
15.13,-0.123,0.922,0.133
15.14,-0.193,0.82,0.147
15.15,-0.317,1.065,-0.099
15.16,-0.281,0.795,-0.14
15.17,-0.142,1.28,0.113
15.18,-0.057,0.714,0.097
15.19,-0.258,0.988,-0.014
15.2,-0.348,0.966,-0.183
15.21,-0.113,1.086,-0.046
15.22,-0.166,0.925,0.143
15.23,-0.131,0.816,0.154
15.24,-0.407,1.116,-0.203
15.25,-0.229,0.78,-0.119
15.26,-0.032,1.332,0.133
15.27,-0.182,0.662,0.156
15.28,-0.289,1.009,-0.018
15.29,-0.252,1.035,-0.237
15.3,-0.192,0.973,0.014
15.31,-0.094,0.86,0.193
15.32,-0.178,0.815,0.025
15.33,-0.341,1.089,-0.219
15.34,-0.136,0.953,0.006
15.35,-0.228,1.164,0.131
15.36,-0.08,0.664,0.162
15.37,-0.352,1.16,-0.056
15.38,-0.345,0.871,-0.145
15.39,-0.138,1.139,0.093
15.4,-0.123,0.922,0.11
15.41,-0.149,0.75,0.016
15.42,-0.498,1.257,-0.144
15.43,-0.095,0.884,-0.046
15.44,-0.19,1.141,0.085
15.45,-0.063,0.687,0.176
15.46,-0.429,1.083,-0.138
15.47,-0.243,0.95,-0.144
15.48,-0.023,1.125,0.083
15.49,-0.131,0.764,0.135
15.5,-0.282,0.872,0.019
15.51,-0.342,1.119,-0.207
15.52,-0.084,0.929,0.015
15.53,-0.173,1.171,0.166
15.54,-0.192,0.622,0.075
15.55,-0.417,1.24,-0.182
15.56,-0.119,0.947,-0.089
15.57,-0.187,1.063,0.098
15.58,-0.139,0.827,0.133
15.59,-0.297,0.879,-0.093
15.6,-0.34,1.155,-0.152
15.61,-0.045,0.911,0.043
15.62,-0.162,1.104,0.102
15.63,-0.146,0.613,0.06
15.64,-0.414,1.297,-0.176
15.65,-0.157,0.932,-0.036
15.66,-0.15,0.985,0.143
15.67,-0.158,0.918,0.162
15.68,-0.404,0.841,-0.175
15.69,-0.171,1.167,-0.148
15.7,-0.096,0.955,0.156
15.71,-0.17,1.056,0.125
15.72,-0.2,0.664,-0.051
15.73,-0.348,1.248,-0.174
15.74,-0.154,0.973,0.015
15.75,-0.136,0.919,0.148
15.76,-0.125,0.959,0.051
15.77,-0.409,0.837,-0.19
15.78,-0.225,1.287,-0.074
15.79,-0.116,0.814,0.102
15.8,-0.157,1.0,0.133
15.81,-0.184,0.737,-0.072
15.82,-0.348,1.178,-0.173
15.83,-0.08,1.011,0.061
15.84,-0.072,0.904,0.117
15.85,-0.252,0.957,0.048
15.86,-0.351,0.855,-0.2
15.87,-0.159,1.315,-0.058
15.88,-0.089,0.719,0.109
15.89,-0.164,1.019,0.125
15.9,-0.304,0.844,-0.119
15.91,-0.231,1.054,-0.149
15.92,-0.031,1.088,0.087
15.93,-0.158,0.759,0.107
15.94,-0.275,1.022,-0.001
15.95,-0.333,0.929,-0.182
15.96,-0.17,1.229,-0.025
15.97,-0.114,0.716,0.174
15.98,-0.166,0.979,0.055
15.99,-0.398,0.894,-0.207
16.0,-0.186,1.012,-0.037
16.01,-0.096,1.125,0.114
16.02,-0.186,0.639,0.135
16.03,-0.2,1.154,-0.05
16.04,-0.341,0.846,-0.207
16.05,-0.132,1.194,0.062
16.06,-0.062,0.818,0.111
16.07,-0.244,0.9,0.008
16.08,-0.346,1.049,-0.153
16.09,-0.11,0.972,-0.123
16.1,-0.218,1.01,0.163
16.11,-0.075,0.679,0.166
16.12,-0.381,1.156,-0.158
16.13,-0.239,0.805,-0.122
16.14,0.003,1.305,0.045
16.15,-0.145,0.622,0.16
16.16,-0.303,1.043,0.013
16.17,-0.316,1.016,-0.189
16.18,-0.159,1.026,-0.024
16.19,-0.104,1.001,0.149
16.2,-0.094,0.753,0.047
16.21,-0.424,1.136,-0.185
16.22,-0.186,0.87,-0.032
16.23,-0.074,1.227,0.105
16.24,-0.125,0.644,0.169
16.25,-0.339,1.049,-0.025
16.26,-0.339,1.015,-0.175
16.27,-0.159,0.957,0.078
16.28,-0.111,1.108,0.16
16.29,-0.121,0.658,-0.02
16.3,-0.438,1.211,-0.205
16.31,-0.03,0.912,-0.033
16.32,-0.165,1.118,0.088
16.33,-0.216,0.699,0.231
16.34,-0.286,1.017,-0.17
16.35,-0.236,1.023,-0.222
16.36,-0.08,0.985,0.157
16.37,-0.129,1.049,0.087
16.38,-0.188,0.621,-0.055
16.39,-0.37,1.309,-0.18
16.4,-0.079,0.891,-0.007
16.41,-0.28,1.073,0.153
16.42,-0.045,0.788,0.106
16.43,-0.41,0.961,-0.173
16.44,-0.197,1.137,-0.084
16.45,-0.032,0.875,0.081
16.46,-0.173,1.055,0.157
16.47,-0.272,0.703,-0.02
16.48,-0.359,1.254,-0.224
16.49,-0.113,0.9,0.033
16.5,-0.134,1.046,0.158
16.51,-0.138,0.833,0.023
16.52,-0.401,0.927,-0.197
16.53,-0.099,1.182,-0.072
16.54,-0.041,0.783,0.143
16.55,-0.235,1.047,0.135
16.56,-0.241,0.735,-0.092
16.57,-0.311,1.208,-0.155
16.58,-0.135,0.979,0.115
16.59,-0.036,0.956,0.108
16.6,-0.24,0.869,-0.004
16.61,-0.423,0.952,-0.148
16.62,-0.034,1.269,-0.092
16.63,-0.168,0.667,0.108
16.64,-0.084,1.064,0.179
16.65,-0.341,0.85,-0.169
16.66,-0.355,1.111,-0.139
16.67,0.094,1.019,0.088
16.68,-0.177,0.813,0.135
16.69,-0.347,0.977,0.042
16.7,-0.241,0.955,-0.212
16.71,-0.184,1.205,-0.035
16.72,-0.129,0.71,0.215
16.73,-0.06,1.02,0.061
16.74,-0.48,0.903,-0.171
16.75,-0.116,1.095,-0.061
16.76,-0.102,0.978,0.103
16.77,-0.264,0.777,0.209
16.78,-0.28,1.113,-0.089
16.79,-0.322,0.842,-0.176
16.8,-0.215,1.258,0.091
16.81,0.013,0.714,0.095
16.82,-0.248,1.007,0.059
16.83,-0.382,0.975,-0.2
16.84,-0.068,1.01,-0.124
16.85,-0.137,0.971,0.146
16.86,-0.143,0.757,0.168
16.87,-0.369,1.146,-0.17
16.88,-0.285,0.806,-0.132
16.89,-0.058,1.318,0.101
16.9,-0.096,0.676,0.112
16.91,-0.295,0.948,0.017
16.92,-0.31,1.085,-0.181
16.93,-0.104,0.978,0.016
16.94,-0.123,0.898,0.209
16.95,-0.168,0.805,0.091
16.96,-0.453,1.13,-0.199
16.97,-0.093,0.903,-0.057
16.98,-0.125,1.178,0.076
16.99,-0.198,0.662,0.188
17.0,-0.3,1.147,-0.065
17.01,-0.278,0.902,-0.201
17.02,-0.123,1.108,0.136
17.03,-0.076,0.911,0.126
17.04,-0.234,0.712,0.014
17.05,-0.367,1.257,-0.173
17.06,-0.044,0.85,-0.066
17.07,-0.261,1.11,0.166
17.08,-0.005,0.715,0.156
17.09,-0.467,1.099,-0.168
17.1,-0.227,0.931,-0.129
17.11,-0.036,1.117,0.11
17.12,-0.183,0.905,0.108
17.13,-0.28,0.696,0.011
17.14,-0.365,1.32,-0.235
17.15,-0.081,0.781,-0.003
17.16,-0.208,1.162,0.177
17.17,-0.07,0.71,0.094
17.18,-0.392,1.057,-0.196
17.19,-0.19,1.092,-0.011
17.2,-0.175,0.912,0.104
17.21,-0.157,0.947,0.16
17.22,-0.228,0.754,-0.085
17.23,-0.35,1.258,-0.227
17.24,-0.128,0.834,0.145
17.25,-0.112,1.154,0.094
17.26,-0.132,0.691,0.017
17.27,-0.455,1.081,-0.135
17.28,-0.065,1.138,-0.097
17.29,-0.117,0.766,0.097
17.3,-0.198,1.055,0.168
17.31,-0.261,0.698,-0.162
17.32,-0.116,1.055,-0.105
17.33,-0.116,0.823,0.068
17.34,-0.206,0.973,0.194
17.35,-0.25,0.759,-0.141
17.36,-0.276,1.199,-0.173
17.37,-0.062,0.93,0.135
17.38,-0.106,1.01,0.101
17.39,-0.195,0.755,0.028
17.4,-0.37,1.189,-0.168
17.41,-0.191,1.035,-0.018
17.42,-0.143,0.837,0.147
17.43,-0.134,1.054,0.126
17.44,-0.38,0.749,-0.175
17.45,-0.222,1.265,-0.093
17.46,-0.025,0.911,0.071
17.47,-0.151,0.897,0.143
17.48,-0.246,0.808,0.01
17.49,-0.327,1.126,-0.243
17.5,-0.064,1.074,-0.029
17.51,-0.175,0.817,0.227
17.52,-0.211,1.011,0.053
17.53,-0.359,0.767,-0.209
17.54,-0.194,1.324,-0.01
17.55,-0.062,0.845,0.094
17.56,-0.23,0.868,0.139
17.57,-0.184,0.965,-0.049
17.58,-0.378,0.988,-0.182
17.59,-0.143,1.144,0.09
17.6,-0.047,0.787,0.125
17.61,-0.267,1.006,-0.029
17.62,-0.402,0.833,-0.094
17.63,-0.138,1.297,-0.072
17.64,-0.13,0.755,0.098
17.65,-0.131,0.893,0.145
17.66,-0.318,1.065,-0.151
17.67,-0.333,1.038,-0.032
17.68,-0.015,1.108,0.064
17.69,-0.108,0.683,0.105
17.7,-0.333,1.051,0.041
17.71,-0.314,0.896,-0.201
17.72,-0.14,1.226,-0.025
17.73,-0.204,0.76,0.233
17.74,-0.126,0.94,0.053
17.75,-0.373,0.945,-0.22
17.76,-0.109,1.047,-0.055
17.77,-0.08,1.106,0.046
17.78,-0.088,0.641,0.125
17.79,-0.305,1.158,-0.053
17.8,-0.278,0.867,-0.175
17.81,-0.212,1.223,0.072
17.82,-0.119,0.802,0.133
17.83,-0.156,0.89,-0.017
17.84,-0.411,1.087,-0.165
17.85,-0.163,0.961,-0.034
17.86,-0.163,1.056,0.13
17.87,-0.06,0.7,0.175
17.88,-0.473,1.124,-0.148
17.89,-0.255,0.795,-0.137
17.9,-0.065,1.321,0.104
17.91,-0.184,0.759,0.115
17.92,-0.241,0.831,0.015
17.93,-0.337,1.18,-0.185
17.94,-0.132,0.826,-0.07
17.95,-0.162,1.076,0.214
17.96,-0.07,0.745,0.106
17.97,-0.434,1.146,-0.2
17.98,-0.186,0.9,-0.066
17.99,-0.059,1.145,0.05
18.0,-0.093,0.77,0.112
18.01,-0.322,0.884,-0.007
18.02,-0.309,1.243,-0.239
18.03,-0.137,0.823,0.03
18.04,-0.109,1.185,0.198
18.05,-0.155,0.665,0.04
18.06,-0.469,1.121,-0.2
18.07,-0.058,1.036,-0.078
18.08,-0.099,0.995,0.103
18.09,-0.203,0.863,0.177
18.1,-0.267,0.865,-0.111
18.11,-0.251,1.191,-0.204
18.12,-0.108,0.911,0.163
18.13,-0.159,1.135,0.157
18.14,-0.189,0.671,-0.024
18.15,-0.457,1.205,-0.147
18.16,-0.1,0.972,-0.063
18.17,-0.16,0.917,0.127
18.18,-0.1,0.965,0.124
18.19,-0.32,0.789,-0.179
18.2,-0.317,1.257,-0.1
18.21,-0.058,0.894,0.09
18.22,-0.13,1.009,0.122
18.23,-0.266,0.765,-0.017
18.24,-0.424,1.16,-0.219
18.25,-0.058,0.998,-0.067
18.26,-0.068,0.887,0.16
18.27,-0.176,0.994,0.061
18.28,-0.301,0.734,-0.181
18.29,-0.197,1.302,-0.062
18.3,-0.057,0.823,0.103
18.31,-0.167,0.949,0.162
18.32,-0.354,0.872,-0.046
18.33,-0.298,1.054,-0.196
18.34,-0.114,1.093,0.03
18.35,-0.134,0.787,0.166
18.36,-0.124,1.034,0.036
18.37,-0.378,0.856,-0.183
18.38,-0.134,1.273,-0.054
18.39,-0.11,0.771,0.083
18.4,-0.204,0.926,0.16
18.41,-0.257,0.978,-0.13
18.42,-0.31,0.961,-0.184
18.43,-0.107,1.174,0.097
18.44,-0.062,0.717,0.137
18.45,-0.32,1.042,0.009
18.46,-0.366,0.875,-0.143
18.47,-0.102,1.231,-0.065
18.48,-0.175,0.733,0.117
18.49,-0.121,1.045,0.08
18.5,-0.358,0.837,-0.268
18.51,-0.192,1.045,-0.011
18.52,-0.071,1.109,0.112
18.53,-0.193,0.665,0.148
18.54,-0.274,1.121,0.0
18.55,-0.332,0.9,-0.175
18.56,-0.186,1.194,0.029
18.57,-0.046,0.818,0.151
18.58,-0.135,0.923,0.001
18.59,-0.385,0.983,-0.152
18.6,-0.11,1.032,-0.108
18.61,-0.177,1.015,0.063
18.62,-0.096,0.73,0.206
18.63,-0.399,1.147,-0.138
18.64,-0.283,0.761,-0.16
18.65,-0.082,1.276,0.103
18.66,-0.111,0.771,0.156
18.67,-0.3,0.892,0.026
18.68,-0.324,1.131,-0.202
18.69,-0.078,0.951,-0.056
18.7,-0.234,1.087,0.192
18.71,-0.046,0.689,0.129
18.72,-0.479,1.146,-0.163
18.73,-0.203,0.841,-0.067
18.74,-0.068,1.255,0.05
18.75,-0.148,0.703,0.131
18.76,-0.295,0.923,0.039
18.77,-0.381,1.181,-0.237
18.78,-0.105,0.799,-0.004
18.79,-0.167,1.173,0.194
18.8,-0.156,0.648,0.065
18.81,-0.469,1.169,-0.177
18.82,-0.142,0.954,-0.036
18.83,-0.116,1.062,0.103
18.84,-0.271,0.791,0.182
18.85,-0.212,0.862,-0.041
18.86,-0.416,1.191,-0.162
18.87,-0.1,0.849,0.081
18.88,-0.06,1.181,0.111
18.89,-0.18,0.605,0.017
18.9,-0.46,1.216,-0.139
18.91,-0.08,1.001,-0.116
18.92,-0.134,0.948,0.09
18.93,-0.139,0.922,0.149
18.94,-0.307,0.868,-0.137
18.95,-0.361,1.183,-0.122
18.96,0.025,0.884,0.082
18.97,-0.183,1.056,0.151
18.98,-0.191,0.701,-0.032
18.99,-0.379,1.275,-0.2
19.0,-0.098,0.955,-0.075
19.01,-0.174,0.887,0.184
19.02,-0.014,0.943,0.083
19.03,-0.424,0.81,-0.199
19.04,-0.24,1.245,-0.052
19.05,-0.018,0.867,0.078
19.06,-0.231,0.979,0.133
19.07,-0.164,0.793,-0.055
19.08,-0.311,1.155,-0.264
19.09,-0.201,1.036,0.074
19.1,-0.078,0.879,0.122
19.11,-0.164,0.941,0.025
19.12,-0.437,0.846,-0.098
19.13,-0.108,1.324,-0.079
19.14,-0.116,0.7,0.132
19.15,-0.228,1.007,0.198
19.16,-0.261,0.934,-0.137
19.17,-0.338,0.986,-0.188
19.18,-0.03,1.185,0.098
19.19,-0.136,0.832,0.159
19.2,-0.338,0.994,0.019
19.21,-0.302,0.852,-0.141
19.22,-0.229,1.258,-0.027
19.23,-0.208,0.736,0.188
19.24,-0.025,0.983,0.086
19.25,-0.344,0.954,-0.192
19.26,-0.302,0.969,-0.05
19.27,-0.039,1.24,0.025
19.28,-0.118,0.554,0.168
19.29,-0.267,1.127,0.017
19.3,-0.362,0.915,-0.203
19.31,-0.192,1.137,0.041
19.32,-0.06,0.846,0.168
19.33,-0.152,0.981,0.045
19.34,-0.434,0.876,-0.184
19.35,-0.076,1.104,-0.117
19.36,-0.141,1.008,0.068
19.37,-0.142,0.702,0.217
19.38,-0.356,1.127,-0.072
19.39,-0.309,0.776,-0.149
19.4,-0.176,1.281,0.102
19.41,-0.095,0.782,0.116
19.42,-0.215,0.92,0.038
19.43,-0.422,1.01,-0.166
19.44,-0.074,1.048,-0.096
19.45,-0.182,0.976,0.104
19.46,-0.111,0.742,0.186
19.47,-0.449,1.2,-0.131
19.48,-0.241,0.747,-0.184
19.49,0.032,1.3,0.087
19.5,-0.126,0.712,0.136
19.51,-0.297,0.922,0.035
19.52,-0.338,1.145,-0.244
19.53,-0.1,0.845,-0.089
19.54,-0.15,1.129,0.221
19.55,-0.142,0.685,0.059
19.56,-0.468,1.16,-0.188
19.57,-0.159,0.895,-0.045
19.58,-0.033,1.203,0.03
19.59,-0.113,0.724,0.155
19.6,-0.236,0.926,-0.022
19.61,-0.392,1.146,-0.212
19.62,-0.107,0.838,0.026
19.63,-0.099,1.213,0.15
19.64,-0.103,0.641,0.011
19.65,-0.452,1.204,-0.164
19.66,-0.096,0.953,-0.067
19.67,-0.148,1.019,0.072
19.68,-0.148,0.799,0.184
19.69,-0.263,0.9,-0.113
19.7,-0.241,1.131,-0.216
19.71,-0.1,0.927,0.155
19.72,-0.15,1.134,0.138
19.73,-0.171,0.608,0.026
19.74,-0.421,1.318,-0.175
19.75,-0.09,0.973,-0.07
19.76,-0.24,0.952,0.134
19.77,-0.094,0.918,0.175
19.78,-0.377,0.814,-0.147
19.79,-0.304,1.192,-0.106
19.8,-0.005,0.936,0.078
19.81,-0.206,1.029,0.096
19.82,-0.208,0.707,0.054
19.83,-0.376,1.25,-0.242
19.84,-0.161,0.886,-0.005
19.85,-0.146,0.948,0.167
19.86,-0.096,0.989,0.038
19.87,-0.39,0.773,-0.207
19.88,-0.126,1.289,-0.077
19.89,-0.013,0.874,0.046
19.9,-0.159,0.965,0.137
19.91,-0.221,0.793,-0.031
19.92,-0.397,1.126,-0.187
19.93,-0.134,1.054,0.089
19.94,-0.129,0.891,0.155
19.95,-0.153,0.947,0.001
19.96,-0.374,0.879,-0.18
19.97,-0.068,1.295,-0.103
19.98,-0.115,0.72,0.091
19.99,-0.134,0.978,0.177
20.0,-0.333,0.929,-0.144
20.01,-0.322,0.957,-0.17
20.02,-0.064,1.188,0.1
20.03,-0.116,0.732,0.131
20.04,-0.274,1.025,0.033
20.05,-0.317,0.935,-0.169
20.06,-0.167,1.208,-0.056
20.07,-0.157,0.712,0.143
20.08,-0.07,0.967,0.091
20.09,-0.378,0.97,-0.217
20.1,-0.233,0.936,-0.045
20.11,-0.067,1.188,0.074
20.12,-0.234,0.701,0.178
20.13,-0.241,1.083,-0.016
20.14,-0.37,0.851,-0.233
20.15,-0.118,1.157,0.025
20.16,0.037,0.837,0.112
20.17,-0.197,0.975,-0.02
20.18,-0.361,0.917,-0.123
20.19,-0.069,1.118,-0.076
20.2,-0.18,0.954,0.107
20.21,-0.153,0.707,0.214
20.22,-0.401,1.133,-0.113
20.23,-0.289,0.808,-0.146
20.24,-0.098,1.293,0.102
20.25,-0.096,0.757,0.129
20.26,-0.265,0.922,0.042
20.27,-0.334,1.088,-0.152
20.28,-0.127,1.005,-0.021
20.29,-0.248,0.997,0.162
20.3,-0.048,0.734,0.166
20.31,-0.52,1.18,-0.16
20.32,-0.275,0.843,-0.048
20.33,-0.041,1.3,0.073
20.34,-0.156,0.666,0.107
20.35,-0.223,0.968,0.046
20.36,-0.367,1.118,-0.248
20.37,-0.124,0.846,0.019
20.38,-0.083,1.177,0.173
20.39,-0.161,0.689,0.057
20.4,-0.438,1.165,-0.181
20.41,-0.078,0.962,-0.066
20.42,-0.201,1.112,0.132
20.43,-0.206,0.727,0.165
20.44,-0.239,0.943,-0.076
20.45,-0.339,1.139,-0.175
20.46,-0.138,0.872,0.073
20.47,-0.058,1.124,0.124
20.48,-0.168,0.603,0.022
20.49,-0.399,1.278,-0.184
20.5,-0.119,0.945,-0.083
20.51,-0.193,0.948,0.103
20.52,-0.085,0.887,0.173
20.53,-0.368,0.901,-0.17
20.54,-0.251,1.132,-0.13
20.55,-0.036,0.961,0.122
20.56,-0.177,1.036,0.11
20.57,-0.225,0.634,0.02
20.58,-0.406,1.333,-0.216
20.59,-0.069,0.925,-0.055
20.6,-0.205,0.94,0.163
20.61,-0.108,0.906,0.105
20.62,-0.434,0.8,-0.201
20.63,-0.155,1.255,-0.077
20.64,0.038,0.878,0.09
20.65,-0.267,0.968,0.133
20.66,-0.167,0.696,-0.024
20.67,-0.345,1.211,-0.211
20.68,-0.105,0.985,0.048
20.69,-0.059,0.911,0.135
20.7,-0.138,0.96,0.034
20.71,-0.426,0.884,-0.152
20.72,-0.142,1.305,-0.081
20.73,-0.122,0.711,0.093
20.74,-0.207,1.002,0.209
20.75,-0.314,0.852,-0.129
20.76,-0.263,1.006,-0.217
20.77,-0.058,1.123,0.094
20.78,-0.125,0.739,0.155
20.79,-0.26,1.018,0.041
20.8,-0.325,0.97,-0.197
20.81,-0.158,1.223,-0.059
20.82,-0.214,0.747,0.165
20.83,-0.067,0.973,0.139
20.84,-0.372,0.927,-0.185
20.85,-0.235,1.0,-0.042
20.86,-0.118,1.129,0.085
20.87,-0.135,0.639,0.167
20.88,-0.318,1.111,0.042
20.89,-0.379,0.894,-0.198
20.9,-0.086,1.157,-0.036
20.91,-0.058,0.847,0.133
20.92,-0.176,0.906,0.089
20.93,-0.418,1.039,-0.216
20.94,-0.09,1.1,-0.119
20.95,-0.176,0.916,0.103
20.96,-0.142,0.767,0.194
20.97,-0.319,1.133,-0.121
20.98,-0.321,0.785,-0.166
20.99,-0.105,1.261,0.155
21.0,-0.127,0.736,0.142
21.01,-0.272,0.955,0.018
21.02,-0.373,1.033,-0.152
21.03,-0.184,1.038,-0.038
21.04,-0.162,0.936,0.148
21.05,-0.089,0.821,0.14
21.06,-0.436,1.18,-0.169
21.07,-0.32,0.798,-0.082
21.08,-0.035,1.299,0.119
21.09,-0.132,0.689,0.112
21.1,-0.273,0.974,0.041
21.11,-0.328,1.1,-0.224
21.12,-0.131,0.89,0.005
21.13,-0.185,1.076,0.187
21.14,-0.085,0.66,0.066
21.15,-0.509,1.195,-0.196
21.16,-0.087,0.88,-0.015
21.17,-0.13,1.203,0.084
21.18,-0.169,0.663,0.128
21.19,-0.22,0.982,-0.033
21.2,-0.347,1.15,-0.228
21.21,-0.21,0.862,0.103
21.22,-0.104,1.197,0.126
21.23,-0.124,0.607,0.002
21.24,-0.486,1.244,-0.142
21.25,-0.03,0.935,-0.098
21.26,-0.192,1.021,0.098
21.27,-0.095,0.867,0.215
21.28,-0.368,0.887,-0.132
21.29,-0.327,1.096,-0.121
21.3,0.0,0.99,0.121
21.31,-0.2,1.082,0.087
21.32,-0.275,0.609,0.052
21.33,-0.374,1.315,-0.23
21.34,-0.068,0.915,-0.1
21.35,-0.229,0.989,0.215
21.36,-0.093,0.912,0.101
21.37,-0.441,0.814,-0.169
21.38,-0.288,1.213,-0.04
21.39,-0.035,0.872,0.074
21.4,-0.219,1.006,0.075
21.41,-0.147,0.741,-0.054
21.42,-0.36,1.24,-0.226
21.43,-0.169,0.93,-0.004
21.44,-0.058,1.027,0.153
21.45,-0.108,0.891,-0.017
21.46,-0.443,0.835,-0.107
21.47,-0.113,1.341,-0.094
21.48,-0.042,0.718,0.038
21.49,-0.18,1.044,0.234
21.5,-0.229,0.862,-0.137
21.51,-0.352,1.026,-0.235
21.52,-0.114,1.059,0.15
21.53,-0.113,0.91,0.153
21.54,-0.281,0.933,-0.004
21.55,-0.317,0.89,-0.124
21.56,-0.201,1.278,-0.037
21.57,-0.217,0.649,0.139
21.58,-0.024,1.058,0.132
21.59,-0.319,0.912,-0.183
21.6,-0.41,0.977,-0.029
21.61,-0.024,1.146,0.045
21.62,-0.135,0.707,0.057
21.63,-0.242,1.078,0.066
21.64,-0.399,0.939,-0.183
21.65,-0.24,1.139,-0.062
21.66,-0.091,0.832,0.199
21.67,-0.134,0.934,0.071
21.68,-0.376,0.92,-0.183
21.69,-0.132,1.064,-0.069
21.7,-0.151,1.117,0.042
21.71,-0.167,0.618,0.166
21.72,-0.234,1.157,0.02
21.73,-0.29,0.892,-0.199
21.74,-0.217,1.187,0.034
21.75,-0.132,0.857,0.211
21.76,-0.251,0.971,0.031
21.77,-0.421,0.888,-0.154
21.78,-0.056,1.113,-0.129
21.79,-0.112,0.966,0.027
21.8,-0.151,0.747,0.211
21.81,-0.337,1.133,-0.097
21.82,-0.326,0.777,-0.145
21.83,-0.053,1.295,0.106
21.84,-0.06,0.71,0.116
21.85,-0.289,0.932,0.051
21.86,-0.297,1.105,-0.156
21.87,-0.175,0.99,-0.108
21.88,-0.189,0.983,0.151
21.89,-0.013,0.761,0.149
21.9,-0.451,1.164,-0.194
21.91,-0.29,0.728,-0.145
21.92,-0.05,1.337,0.074
21.93,-0.191,0.738,0.141
21.94,-0.307,0.86,0.043
21.95,-0.228,1.189,-0.18
21.96,-0.184,0.969,-0.053
21.97,-0.224,0.954,0.132
21.98,0.039,0.716,0.114
21.99,-0.479,1.193,-0.213
22.0,-0.226,0.803,-0.003
22.01,-0.099,1.264,0.092
22.02,-0.166,0.722,0.07
22.03,-0.181,0.929,0.06
22.04,-0.346,1.184,-0.229
22.05,-0.182,0.768,-0.026
22.06,-0.151,1.204,0.196
22.07,-0.008,0.687,0.039
22.08,-0.537,1.11,-0.174
22.09,-0.132,0.945,-0.059
22.1,-0.019,1.14,0.023
22.11,-0.228,0.779,0.148
22.12,-0.2,0.88,0.029
22.13,-0.303,1.288,-0.219
22.14,-0.215,0.817,0.031
22.15,-0.169,1.157,0.213
22.16,0.01,0.716,0.055
22.17,-0.583,1.156,-0.192
22.18,-0.134,0.951,0.004
22.19,-0.121,1.053,0.049
22.2,-0.264,0.876,0.138
22.21,-0.229,0.825,-0.04
22.22,-0.282,1.27,-0.221
22.23,-0.255,0.797,0.095
22.24,-0.085,1.201,0.156
22.25,-0.095,0.663,0.027
22.26,-0.516,1.119,-0.125
22.27,-0.062,1.073,-0.053
22.28,-0.108,0.912,0.039
22.29,-0.211,0.948,0.216
22.3,-0.232,0.786,-0.102
22.31,-0.34,1.192,-0.181
22.32,-0.199,0.89,0.152
22.33,-0.007,1.164,0.052
22.34,-0.199,0.663,0.012
22.35,-0.372,1.103,-0.111
22.36,-0.099,1.144,-0.099
22.37,-0.218,0.777,0.096
22.38,-0.05,1.066,0.166
22.39,-0.317,0.782,-0.151
22.4,-0.354,1.146,-0.124
22.41,0.016,0.996,0.059
22.42,-0.157,0.986,0.111
22.43,-0.229,0.765,0.036
22.44,-0.35,1.097,-0.126
22.45,-0.192,1.146,-0.078
22.46,-0.202,0.645,0.156
22.47,-0.027,1.111,0.123
22.48,-0.378,0.795,-0.186
22.49,-0.309,1.108,-0.1
22.5,-0.051,1.026,0.085
22.51,-0.114,0.926,0.112
22.52,-0.247,0.837,-0.011
22.53,-0.293,1.053,-0.151
22.54,-0.218,1.168,-0.017
22.55,-0.168,0.65,0.169
22.56,-0.096,1.132,0.157
22.57,-0.438,0.781,-0.21
22.58,-0.278,1.245,-0.0
22.59,0.004,0.926,0.038
22.6,-0.212,0.89,0.145
22.61,-0.19,0.866,0.034
22.62,-0.335,1.154,-0.225
22.63,-0.171,1.078,0.01
22.64,-0.207,0.85,0.228
22.65,-0.1,1.031,0.052
22.66,-0.429,0.776,-0.195
22.67,-0.17,1.274,-0.023
22.68,-0.152,0.885,0.077
22.69,-0.192,0.825,0.136
22.7,-0.206,0.953,-0.022
22.71,-0.397,0.988,-0.208
22.72,-0.189,1.073,0.012
22.73,0.017,0.841,0.155
22.74,-0.184,1.0,0.009
22.75,-0.442,0.808,-0.105
22.76,-0.054,1.237,-0.089
22.77,-0.12,0.832,0.075
22.78,-0.215,0.852,0.268
22.79,-0.249,1.072,-0.112
22.8,-0.339,0.829,-0.188
22.81,-0.2,1.234,0.158
22.82,-0.023,0.787,0.148
22.83,-0.303,0.996,-0.024
22.84,-0.348,0.904,-0.166
22.85,-0.083,1.19,-0.088
22.86,-0.205,0.847,0.131
22.87,-0.168,0.795,0.221
22.88,-0.353,1.11,-0.155
22.89,-0.33,0.774,-0.147
22.9,-0.108,1.331,0.108
22.91,-0.07,0.692,0.092
22.92,-0.291,0.965,0.025
22.93,-0.274,1.066,-0.17
22.94,-0.17,1.056,-0.039
22.95,-0.232,0.847,0.135
22.96,-0.014,0.797,0.148
22.97,-0.49,1.177,-0.174
22.98,-0.327,0.756,-0.062
22.99,0.006,1.363,0.04
23.0,-0.118,0.645,0.066
23.01,-0.344,0.998,0.072
23.02,-0.232,1.067,-0.203
23.03,-0.177,0.934,-0.041
23.04,-0.19,1.008,0.197
23.05,-0.048,0.734,0.08
23.06,-0.516,1.158,-0.208
23.07,-0.249,0.846,-0.009
23.08,-0.053,1.271,0.061
23.09,-0.191,0.683,0.139
23.1,-0.28,0.974,0.045
23.11,-0.251,1.092,-0.237
23.12,-0.173,0.906,-0.059
23.13,-0.144,1.078,0.198
23.14,-0.022,0.677,0.043
23.15,-0.569,1.214,-0.205
23.16,-0.047,0.899,-0.064
23.17,-0.149,1.153,0.071
23.18,-0.243,0.719,0.237
23.19,-0.229,0.937,-0.038
23.2,-0.282,1.115,-0.227
23.21,-0.168,0.911,0.069
23.22,-0.12,1.188,0.129
23.23,-0.088,0.629,0.003
23.24,-0.525,1.231,-0.138
23.25,-0.019,0.975,-0.065
23.26,-0.134,1.095,0.075
23.27,-0.213,0.781,0.189
23.28,-0.231,0.847,-0.105
23.29,-0.284,1.198,-0.173
23.3,-0.208,0.876,0.113
23.31,-0.099,1.16,0.134
23.32,-0.187,0.608,0.022
23.33,-0.444,1.243,-0.185
23.34,-0.041,0.993,-0.087
23.35,-0.136,0.979,0.09
23.36,-0.242,0.909,0.205
23.37,-0.247,0.833,-0.124
23.38,-0.33,1.221,-0.167
23.39,-0.045,0.905,0.083
23.4,-0.111,1.046,0.113
23.41,-0.279,0.632,-0.019
23.42,-0.416,1.298,-0.19
23.43,-0.05,0.873,-0.088
23.44,-0.193,1.071,0.157
23.45,-0.134,0.826,0.144
23.46,-0.348,0.912,-0.172
23.47,-0.336,1.21,-0.059
23.48,0.018,0.886,0.045
23.49,-0.157,1.0,0.143
23.5,-0.227,0.714,0.023
23.51,-0.434,1.296,-0.221
23.52,-0.041,0.883,-0.026
23.53,-0.242,1.035,0.176
23.54,-0.134,0.862,0.116
23.55,-0.375,0.892,-0.163
23.56,-0.199,1.248,-0.075
23.57,-0.095,0.75,0.088
23.58,-0.107,1.045,0.152
23.59,-0.353,0.759,-0.021
23.6,-0.391,1.114,-0.207
23.61,-0.043,0.981,-0.011
23.62,-0.111,0.976,0.124
23.63,-0.162,0.945,0.08
23.64,-0.34,0.874,-0.176
23.65,-0.247,1.24,-0.03
23.66,-0.038,0.758,0.113
23.67,-0.176,1.023,0.148
23.68,-0.348,0.824,-0.101
23.69,-0.25,1.071,-0.174
23.7,-0.1,1.075,0.053
23.71,-0.09,0.809,0.129
23.72,-0.207,0.968,0.047
23.73,-0.366,0.883,-0.174
23.74,-0.126,1.227,-0.052
23.75,-0.113,0.737,0.111
23.76,-0.206,0.972,0.131
23.77,-0.259,0.922,-0.154
23.78,-0.27,1.026,-0.155
23.79,-0.15,1.124,0.085
23.8,-0.035,0.734,0.138
23.81,-0.298,1.037,0.03
23.82,-0.428,0.846,-0.165
23.83,-0.073,1.247,-0.046
23.84,-0.074,0.776,0.099
23.85,-0.229,0.937,0.181
23.86,-0.306,0.993,-0.181
23.87,-0.242,0.977,-0.151
23.88,-0.115,1.155,0.107
23.89,-0.068,0.656,0.16
23.9,-0.375,1.086,-0.015
23.91,-0.287,0.869,-0.16
23.92,-0.126,1.17,0.019
23.93,-0.206,0.778,0.147
23.94,-0.107,0.895,0.087
23.95,-0.39,1.088,-0.19
23.96,-0.214,0.909,-0.058
23.97,-0.079,1.212,0.094
23.98,-0.103,0.599,0.134
23.99,-0.325,1.128,-0.057
24.0,-0.267,0.942,-0.194
24.01,-0.086,1.098,0.019
24.02,-0.146,0.904,0.117
24.03,-0.139,0.802,0.036
24.04,-0.418,1.167,-0.215
24.05,-0.181,0.885,-0.056
24.06,-0.086,1.139,0.107
24.07,-0.161,0.663,0.152
24.08,-0.388,1.138,-0.065
24.09,-0.233,0.94,-0.177
24.1,-0.138,1.028,0.076
24.11,-0.098,0.953,0.152
24.12,-0.248,0.74,-0.016
24.13,-0.473,1.228,-0.156
24.14,-0.039,0.897,-0.044
24.15,-0.173,1.14,0.08
24.16,-0.098,0.707,0.15
24.17,-0.429,1.098,-0.16
24.18,-0.251,0.965,-0.133
24.19,-0.025,1.069,0.098
24.2,-0.115,0.955,0.103
24.21,-0.276,0.834,-0.05
24.22,-0.305,1.211,-0.207
24.23,-0.023,0.894,0.009
24.24,-0.258,1.133,0.164
24.25,-0.073,0.669,0.053
24.26,-0.45,1.255,-0.214
24.27,-0.196,0.933,-0.043
24.28,-0.062,1.025,0.1
24.29,-0.158,0.871,0.118
24.3,-0.33,0.837,-0.084
24.31,-0.274,1.206,-0.156
24.32,-0.069,0.894,0.069
24.33,-0.169,1.118,0.148
24.34,-0.177,0.654,0.005
24.35,-0.467,1.18,-0.184
24.36,-0.112,1.015,-0.044
24.37,-0.081,0.891,0.115
24.38,-0.149,1.016,0.15
24.39,-0.355,0.834,-0.169
24.4,-0.278,1.204,-0.158
24.41,0.048,0.865,0.102
24.42,-0.168,1.025,0.157
24.43,-0.291,0.718,-0.002
24.44,-0.345,1.192,-0.191
24.45,-0.104,1.005,-0.039
24.46,-0.081,0.841,0.177
24.47,-0.23,0.984,0.073
24.48,-0.376,0.842,-0.172
24.49,-0.149,1.313,-0.124
24.5,-0.035,0.762,0.091
24.51,-0.177,1.005,0.16
24.52,-0.296,0.855,-0.071
24.53,-0.262,1.051,-0.182
24.54,-0.157,1.113,0.098
24.55,-0.093,0.772,0.17
24.56,-0.297,1.024,0.028
24.57,-0.34,0.898,-0.196
24.58,-0.175,1.206,-0.02
24.59,-0.133,0.767,0.142
24.6,-0.158,0.953,0.147
24.61,-0.348,0.923,-0.167
24.62,-0.242,0.978,-0.086
24.63,-0.087,1.225,0.042
24.64,-0.097,0.635,0.139
24.65,-0.306,1.09,0.04
24.66,-0.416,0.91,-0.209
24.67,-0.133,1.166,-0.037
24.68,-0.05,0.843,0.166
24.69,-0.204,0.914,0.066
24.7,-0.334,1.051,-0.23
24.71,-0.099,0.928,-0.051
24.72,-0.167,1.146,0.098
24.73,-0.129,0.669,0.182
24.74,-0.343,1.169,-0.107
24.75,-0.291,0.832,-0.132
24.76,-0.133,1.18,0.118
24.77,-0.087,0.889,0.115
24.78,-0.175,0.76,-0.004
24.79,-0.397,1.207,-0.174
24.8,-0.104,0.896,-0.048
24.81,-0.171,1.124,0.098
24.82,-0.06,0.677,0.155
24.83,-0.443,1.141,-0.156
24.84,-0.172,0.907,-0.113
24.85,-0.11,1.148,0.159
24.86,-0.184,0.825,0.178
24.87,-0.234,0.773,0.003
24.88,-0.357,1.288,-0.208
24.89,-0.082,0.828,0.008
24.9,-0.21,1.171,0.194
24.91,-0.063,0.677,0.075
24.92,-0.446,1.15,-0.161
24.93,-0.224,1.009,-0.013
24.94,-0.091,1.008,0.116
24.95,-0.141,0.907,0.114
24.96,-0.276,0.781,-0.07
24.97,-0.392,1.244,-0.172
24.98,-0.049,0.858,0.074
24.99,-0.18,1.19,0.172
25.0,-0.143,0.677,0.032
25.01,-0.409,1.115,-0.194
25.02,-0.151,1.089,-0.071
25.03,-0.128,0.969,0.151
25.04,-0.18,0.905,0.123
25.05,-0.417,0.85,-0.187
25.06,-0.246,1.177,-0.135
25.07,0.019,0.9,0.092
25.08,-0.229,1.007,0.137
25.09,-0.229,0.706,-0.021
25.1,-0.363,1.233,-0.22
25.11,-0.115,0.922,0.014
25.12,-0.058,0.983,0.186
25.13,-0.218,0.906,-0.017
25.14,-0.353,0.836,-0.205
25.15,-0.108,1.321,-0.035
25.16,-0.129,0.716,0.125
25.17,-0.176,1.005,0.169
25.18,-0.234,0.841,-0.143
25.19,-0.376,1.086,-0.154
25.2,-0.048,1.044,0.121
25.21,-0.178,0.864,0.13
25.22,-0.203,0.963,-0.034
25.23,-0.342,0.935,-0.152
25.24,-0.234,1.258,-0.002
25.25,-0.133,0.666,0.163
25.26,-0.064,1.03,0.061
25.27,-0.385,0.885,-0.191
25.28,-0.31,1.096,-0.026
25.29,-0.067,1.074,0.09
25.3,-0.172,0.691,0.107
25.31,-0.235,1.096,-0.048
25.32,-0.368,0.833,-0.198
25.33,-0.16,1.207,0.059
25.34,0.022,0.827,0.115
25.35,-0.296,0.925,0.04
25.36,-0.377,0.964,-0.138
25.37,-0.081,1.059,-0.113
25.38,-0.177,1.038,0.103
25.39,-0.143,0.72,0.185
25.4,-0.405,1.135,-0.151
25.41,-0.323,0.782,-0.159
25.42,0.038,1.276,0.074
25.43,-0.164,0.713,0.09
25.44,-0.231,0.887,0.002
25.45,-0.293,1.11,-0.188
25.46,-0.221,0.9,-0.02
25.47,-0.214,1.063,0.208
25.48,-0.1,0.712,0.088
25.49,-0.527,1.122,-0.195
25.5,-0.146,0.878,-0.047
25.51,0.019,1.179,0.046
25.52,-0.205,0.756,0.111
25.53,-0.204,0.894,0.003
25.54,-0.383,1.187,-0.258
25.55,-0.171,0.802,0.033
25.56,0.008,1.22,0.135
25.57,-0.195,0.629,-0.011
25.58,-0.528,1.175,-0.146
25.59,0.004,0.998,-0.101
25.6,-0.152,0.988,0.041
25.61,-0.094,0.837,0.172
25.62,-0.297,0.891,-0.126
25.63,-0.375,1.216,-0.114
25.64,0.041,0.904,0.101
25.65,-0.211,1.04,0.144
25.66,-0.017,1.031,-0.11
25.67,-0.188,0.928,0.108
25.68,-0.207,0.94,0.215
25.69,-0.274,0.786,-0.181
25.7,-0.354,1.224,-0.172
25.71,-0.041,0.937,0.142
25.72,-0.172,1.03,0.087
25.73,-0.253,0.69,0.064
25.74,-0.399,1.225,-0.203
25.75,-0.145,1.0,-0.019
25.76,-0.189,0.859,0.219
25.77,-0.104,1.042,0.079
25.78,-0.448,0.891,-0.169
25.79,-0.188,1.269,-0.03
25.8,-0.096,0.835,0.101
25.81,-0.24,1.016,0.146
25.82,-0.215,0.74,-0.061
25.83,-0.367,1.249,-0.206
25.84,-0.167,0.906,0.096
25.85,-0.063,0.961,0.143
25.86,-0.196,0.87,-0.019
25.87,-0.461,0.904,-0.158
25.88,-0.101,1.272,-0.076
25.89,-0.149,0.682,0.093
25.9,-0.116,1.039,0.147
25.91,-0.325,0.807,-0.155
25.92,-0.335,1.112,-0.126
25.93,0.037,1.041,0.051
25.94,-0.117,0.78,0.112
25.95,-0.305,1.0,0.051
25.96,-0.25,0.961,-0.258
25.97,-0.115,1.193,-0.05
25.98,-0.105,0.711,0.193
25.99,-0.154,1.02,0.103
26.0,-0.457,0.896,-0.22
26.01,-0.156,1.088,-0.048
26.02,-0.11,1.006,0.055
26.03,-0.212,0.675,0.195
26.04,-0.266,1.145,-0.071
26.05,-0.324,0.82,-0.172
26.06,-0.148,1.219,0.112
26.07,-0.046,0.786,0.14
26.08,-0.258,0.912,0.026
26.09,-0.406,1.038,-0.17
26.1,-0.218,1.038,0.005
26.11,-0.29,1.001,0.169
26.12,-0.076,0.721,0.164
26.13,-0.364,1.161,-0.201
26.14,-0.34,0.775,-0.054
26.15,-0.007,1.285,0.073
26.16,-0.103,0.709,0.086
26.17,-0.255,0.922,0.087
26.18,-0.294,1.166,-0.223
26.19,-0.195,0.866,-0.036
26.2,-0.203,1.11,0.191
26.21,-0.035,0.653,0.055
26.22,-0.555,1.201,-0.169
26.23,-0.055,0.889,-0.115
26.24,-0.129,1.149,0.104
26.25,-0.23,0.721,0.172
26.26,-0.238,0.907,-0.063
26.27,-0.339,1.102,-0.21
26.28,-0.102,0.879,0.09
26.29,-0.073,1.158,0.096
26.3,-0.114,0.623,0.024
26.31,-0.536,1.261,-0.146
26.32,-0.037,0.968,-0.052
26.33,-0.198,1.042,0.069
26.34,-0.136,0.853,0.167
26.35,-0.231,0.867,-0.156
26.36,-0.368,1.187,-0.149
26.37,0.01,0.886,0.114
26.38,-0.095,1.089,0.089
26.39,-0.292,0.663,0.047
26.4,-0.307,1.245,-0.201
26.41,-0.096,0.989,-0.041
26.42,-0.25,0.958,0.173
26.43,-0.007,0.911,0.104
26.44,-0.418,0.835,-0.164
26.45,-0.282,1.24,-0.103
26.46,0.055,0.845,0.056
26.47,-0.2,1.04,0.117
26.48,-0.261,0.723,-0.001
26.49,-0.312,1.218,-0.21
26.5,-0.14,1.044,0.015
26.51,-0.098,0.885,0.172
26.52,-0.154,0.951,0.024
26.53,-0.39,0.787,-0.191
26.54,-0.123,1.315,-0.092
26.55,-0.019,0.762,0.101
26.56,-0.261,0.995,0.184
26.57,-0.232,0.867,-0.14
26.58,-0.275,1.031,-0.177
26.59,-0.084,1.142,0.137
26.6,-0.119,0.856,0.103
26.61,-0.331,0.903,0.056
26.62,-0.293,1.016,-0.156
26.63,-0.208,1.18,-0.042
26.64,-0.092,0.681,0.176
26.65,-0.134,1.071,0.071
26.66,-0.337,0.802,-0.208
26.67,-0.261,1.172,-0.021
26.68,-0.049,0.995,0.048
26.69,-0.163,0.754,0.138
26.7,-0.331,1.062,-0.003
26.71,-0.275,0.903,-0.23
26.72,-0.222,1.195,0.072
26.73,-0.059,0.785,0.181
26.74,-0.139,0.991,-0.006
26.75,-0.432,0.905,-0.14
26.76,-0.1,1.097,-0.074
26.77,-0.164,0.981,0.105
26.78,-0.207,0.733,0.209
26.79,-0.285,1.128,-0.11
26.8,-0.329,0.81,-0.137
26.81,-0.134,1.275,0.168
26.82,-0.115,0.729,0.119
26.83,-0.285,0.937,-0.012
26.84,-0.304,1.062,-0.172
26.85,-0.087,0.983,-0.088
26.86,-0.202,0.995,0.127
26.87,-0.031,0.758,0.119
26.88,-0.406,1.168,-0.199
26.89,-0.292,0.816,-0.042
26.9,-0.021,1.272,0.085
26.91,-0.156,0.708,0.124
26.92,-0.28,0.951,0.03
26.93,-0.344,1.125,-0.202
26.94,-0.183,0.945,0.03
26.95,-0.165,1.117,0.167
26.96,-0.099,0.633,0.078
26.97,-0.505,1.257,-0.181
26.98,-0.076,0.88,-0.1
26.99,-0.233,1.117,0.146
27.0,-0.235,0.772,0.187
27.01,-0.284,0.938,-0.105
27.02,-0.326,1.066,-0.161
27.03,-0.083,0.942,0.081
27.04,-0.096,1.126,0.122
27.05,-0.181,0.644,0.052
27.06,-0.435,1.289,-0.181
27.07,-0.129,0.926,-0.092
27.08,-0.146,0.999,0.09
27.09,-0.136,0.854,0.15
27.1,-0.342,0.875,-0.191
27.11,-0.223,1.129,-0.184
27.12,-0.087,0.934,0.112
27.13,-0.135,1.039,0.122
27.14,-0.172,0.667,-0.024
27.15,-0.381,1.32,-0.176
27.16,-0.131,0.887,-0.018
27.17,-0.199,0.935,0.206
27.18,-0.068,0.937,0.074
27.19,-0.406,0.836,-0.232
27.2,-0.151,1.259,-0.054
27.21,-0.085,0.887,0.09
27.22,-0.225,0.974,0.15
27.23,-0.172,0.78,-0.035
27.24,-0.382,1.197,-0.225
27.25,-0.185,0.966,0.043
27.26,-0.001,0.954,0.149
27.27,-0.165,0.961,-0.002
27.28,-0.433,0.833,-0.12
27.29,-0.135,1.277,-0.07
27.3,-0.119,0.761,0.089
27.31,-0.207,1.005,0.185
27.32,-0.203,0.872,-0.145
27.33,-0.358,1.03,-0.178
27.34,-0.104,1.104,0.123
27.35,-0.048,0.804,0.097
27.36,-0.308,0.993,-0.013
27.37,-0.343,0.933,-0.19
27.38,-0.135,1.224,-0.064
27.39,-0.205,0.736,0.188
27.4,-0.043,0.995,0.139
27.41,-0.375,0.793,-0.195
27.42,-0.23,1.152,-0.037
27.43,-0.05,1.002,0.027
27.44,-0.16,0.708,0.14
27.45,-0.267,1.043,-0.008
27.46,-0.272,0.972,-0.231
27.47,-0.181,1.181,0.003
27.48,-0.072,0.793,0.204
27.49,-0.133,1.009,0.009
27.5,-0.441,0.864,-0.188
27.51,-0.135,1.098,-0.08
27.52,-0.096,0.973,0.052
27.53,-0.285,0.708,0.184
27.54,-0.253,1.114,-0.1
27.55,-0.213,0.854,-0.208
27.56,-0.246,1.274,0.142
27.57,0.028,0.725,0.105
27.58,-0.286,0.956,-0.004
27.59,-0.382,1.006,-0.172
27.6,-0.09,1.052,-0.087
27.61,-0.225,0.95,0.103
27.62,-0.02,0.742,0.173
27.63,-0.482,1.185,-0.138
27.64,-0.357,0.722,-0.122
27.65,0.048,1.311,0.03
27.66,-0.106,0.709,0.136
27.67,-0.352,0.932,0.037
27.68,-0.25,1.135,-0.244
27.69,-0.101,0.906,-0.045
27.7,-0.217,1.06,0.174
27.71,-0.012,0.704,0.095
27.72,-0.515,1.181,-0.193
27.73,-0.21,0.82,-0.04
27.74,-0.079,1.227,0.062
27.75,-0.184,0.704,0.117
27.76,-0.275,0.907,0.016
27.77,-0.307,1.181,-0.253
27.78,-0.193,0.821,0.016
27.79,-0.074,1.169,0.183
27.8,-0.111,0.663,0.033
27.81,-0.53,1.161,-0.179
27.82,-0.01,0.943,-0.102
27.83,-0.1,1.053,0.075
27.84,-0.231,0.837,0.207
27.85,-0.305,0.869,-0.103
27.86,-0.281,1.195,-0.185
27.87,-0.022,0.901,0.086
27.88,-0.123,1.065,0.124
27.89,-0.214,0.649,0.016
27.9,-0.387,1.273,-0.188
27.91,-0.05,0.892,-0.075
27.92,-0.218,0.973,0.137
27.93,-0.101,0.937,0.134
27.94,-0.371,0.821,-0.21
27.95,-0.335,1.185,-0.09
27.96,0.051,0.941,0.067
27.97,-0.169,1.018,0.105
27.98,-0.264,0.698,0.003
27.99,-0.284,1.237,-0.22
28.0,-0.084,0.981,-0.01
28.01,-0.149,0.914,0.187
28.02,-0.038,0.975,0.055
28.03,-0.453,0.842,-0.21
28.04,-0.145,1.268,-0.046
28.05,-0.108,0.794,0.088
28.06,-0.207,0.987,0.219
28.07,-0.262,0.839,-0.078
28.08,-0.319,1.071,-0.187
28.09,-0.2,1.067,0.074
28.1,-0.062,0.842,0.159
28.11,-0.145,0.952,0.005
28.12,-0.404,0.886,-0.17
28.13,-0.108,1.303,-0.066
28.14,-0.129,0.684,0.103
28.15,-0.213,1.001,0.221
28.16,-0.333,0.908,-0.124
28.17,-0.284,0.949,-0.197
28.18,-0.02,1.17,0.069
28.19,-0.065,0.696,0.133
28.2,-0.329,1.059,0.015
28.21,-0.268,0.905,-0.181
28.22,-0.181,1.185,-0.007
28.23,-0.098,0.702,0.229
28.24,-0.158,1.079,0.07
28.25,-0.388,0.871,-0.249
28.26,-0.154,1.076,-0.012
28.27,-0.082,1.009,0.092
28.28,-0.213,0.74,0.163
28.29,-0.285,1.106,-0.046
28.3,-0.285,0.841,-0.176
28.31,-0.156,1.272,0.08
28.32,-0.033,0.75,0.088
28.33,-0.187,0.95,0.021
28.34,-0.43,1.018,-0.158
28.35,-0.113,1.049,-0.092
28.36,-0.145,0.975,0.105
28.37,-0.137,0.739,0.189
28.38,-0.438,1.139,-0.132
28.39,-0.263,0.802,-0.091
28.4,-0.056,1.32,0.097
28.41,-0.123,0.666,0.122
28.42,-0.239,0.956,0.039
28.43,-0.306,1.137,-0.207
28.44,-0.133,0.916,0.02
28.45,-0.215,1.065,0.159
28.46,-0.042,0.692,0.078
28.47,-0.505,1.174,-0.2
28.48,-0.207,0.847,-0.006
28.49,-0.099,1.225,0.077
28.5,-0.156,0.729,0.108
28.51,-0.239,0.934,-0.024
28.52,-0.328,1.175,-0.184
28.53,-0.183,0.884,0.095
28.54,-0.056,1.151,0.125
28.55,-0.179,0.637,0.022
28.56,-0.521,1.234,-0.168
28.57,0.013,0.926,-0.104
28.58,-0.139,1.031,0.13
28.59,-0.183,0.855,0.172
28.6,-0.288,0.901,-0.141
28.61,-0.279,1.144,-0.14
28.62,-0.043,0.92,0.126
28.63,-0.111,1.083,0.1
28.64,-0.271,0.642,0.007
28.65,-0.391,1.277,-0.175
28.66,-0.098,0.944,-0.034
28.67,-0.215,0.947,0.178
28.68,-0.079,0.925,0.083
28.69,-0.435,0.837,-0.201
28.7,-0.237,1.208,-0.029
28.71,-0.03,0.858,0.118
28.72,-0.212,1.007,0.119
28.73,-0.197,0.771,-0.049
28.74,-0.33,1.176,-0.211
28.75,-0.207,0.969,0.093
28.76,-0.037,0.953,0.157
28.77,-0.174,0.918,-0.05
28.78,-0.479,0.857,-0.104
28.79,-0.188,1.29,-0.008
28.8,-0.106,0.724,0.113
28.81,-0.152,1.039,0.161
28.82,-0.251,0.841,-0.197
28.83,-0.308,1.086,-0.131
28.84,-0.042,1.106,0.029
28.85,-0.062,0.712,0.084
28.86,-0.372,1.052,0.036
28.87,-0.319,0.899,-0.218
28.88,-0.114,1.187,-0.049
28.89,-0.059,0.778,0.167
28.9,-0.141,0.956,0.046
28.91,-0.407,0.916,-0.217
28.92,-0.095,1.055,-0.097
28.93,-0.047,1.064,0.039
28.94,-0.196,0.675,0.203
28.95,-0.301,1.161,-0.081
28.96,-0.262,0.826,-0.229
28.97,-0.185,1.212,0.181
28.98,-0.094,0.812,0.158
28.99,-0.253,0.862,-0.035
29.0,-0.324,1.106,-0.165
29.01,-0.145,0.969,-0.04
29.02,-0.247,1.03,0.183
29.03,-0.027,0.738,0.151
29.04,-0.435,1.165,-0.186
29.05,-0.151,0.844,-0.021
29.06,-0.112,1.309,0.092
29.07,-0.129,0.612,0.112
29.08,-0.211,1.041,-0.043
29.09,-0.333,1.065,-0.218
29.1,-0.159,0.98,-0.005
29.11,0.0,1.034,0.109
29.12,-0.212,0.655,0.035
29.13,-0.499,1.22,-0.145
29.14,-0.046,0.896,-0.056
29.15,-0.234,1.129,0.058
29.16,-0.031,0.723,0.181
29.17,-0.43,1.009,-0.143
29.18,-0.246,1.009,-0.182
29.19,0.005,1.027,0.129
29.2,-0.189,0.995,0.125
29.21,-0.278,0.655,0.044
29.22,-0.351,1.326,-0.216
29.23,-0.117,0.824,-0.008
29.24,-0.18,1.085,0.218
29.25,-0.049,0.779,0.084
29.26,-0.475,0.952,-0.201
29.27,-0.189,1.17,-0.034
29.28,-0.073,0.896,0.087
29.29,-0.219,0.989,0.118
29.3,-0.169,0.754,-0.066
29.31,-0.335,1.264,-0.22
29.32,-0.1,0.908,0.103
29.33,-0.088,1.062,0.143
29.34,-0.201,0.825,0.002
29.35,-0.423,0.975,-0.159
29.36,-0.191,1.21,-0.077
29.37,-0.114,0.686,0.095
29.38,-0.191,1.093,0.174
29.39,-0.264,0.75,-0.173
29.4,-0.333,1.165,-0.098
29.41,-0.05,1.0,0.099
29.42,-0.068,0.867,0.122
29.43,-0.306,0.933,-0.004
29.44,-0.318,0.967,-0.137
29.45,-0.176,1.2,-0.028
29.46,-0.166,0.705,0.198
29.47,-0.106,1.106,0.065
29.48,-0.364,0.798,-0.224
29.49,-0.248,1.149,-0.018
29.5,0.014,1.003,0.076
29.51,-0.23,0.712,0.156
29.52,-0.251,1.069,-0.048
29.53,-0.287,0.889,-0.258
29.54,-0.208,1.225,0.107
29.55,-0.032,0.71,0.159
29.56,-0.25,0.996,-0.0
29.57,-0.455,0.937,-0.141
29.58,-0.105,1.085,-0.066
29.59,-0.153,0.932,0.12
29.6,-0.167,0.766,0.183
29.61,-0.377,1.149,-0.157
29.62,-0.288,0.81,-0.114
29.63,-0.07,1.32,0.103
29.64,-0.102,0.661,0.125
29.65,-0.32,0.985,-0.006
29.66,-0.313,1.062,-0.192
29.67,-0.076,0.993,-0.017
29.68,-0.241,1.027,0.202
29.69,-0.067,0.693,0.11
29.7,-0.462,1.217,-0.205
29.71,-0.135,0.86,-0.054
29.72,-0.162,1.192,0.129
29.73,-0.2,0.714,0.194
29.74,-0.291,0.986,-0.074
29.75,-0.342,1.052,-0.167
29.76,-0.115,0.967,0.133
29.77,-0.201,1.139,0.143
29.78,-0.155,0.593,0.026
29.79,-0.419,1.293,-0.203
29.8,-0.089,0.902,-0.089
29.81,-0.12,1.02,0.089
29.82,-0.114,0.822,0.168
29.83,-0.349,0.918,-0.139
29.84,-0.291,1.104,-0.125
29.85,0.005,0.955,0.072
29.86,-0.13,0.922,0.069
29.87,-0.223,0.744,0.014
29.88,-0.37,1.314,-0.22
29.89,-0.1,0.794,0.032
29.9,-0.098,1.186,0.151
29.91,-0.146,0.709,0.071
29.92,-0.435,1.072,-0.155
29.93,-0.06,1.192,-0.095
29.94,-0.14,0.832,0.088
29.95,-0.152,0.945,0.15
29.96,-0.277,0.754,-0.089
29.97,-0.361,1.254,-0.14
29.98,-0.085,0.865,0.12
29.99,-0.159,1.067,0.145
30.0,-0.226,0.757,0.009
30.01,-0.38,1.095,-0.177
30.02,-0.08,1.135,-0.072
30.03,-0.183,0.744,0.134
30.04,-0.119,1.05,0.138
30.05,-0.358,0.758,-0.196
30.06,-0.323,1.201,-0.073
30.07,0.023,0.948,0.121
30.08,-0.185,0.89,0.104
30.09,-0.225,0.919,0.012
30.1,-0.311,1.063,-0.239
30.11,-0.147,1.133,0.013
30.12,-0.082,0.777,0.211
30.13,-0.184,1.019,0.029
30.14,-0.418,0.81,-0.209
30.15,-0.157,1.256,-0.038
30.16,-0.125,0.867,0.081
30.17,-0.193,0.81,0.186
30.18,-0.302,1.038,-0.088
30.19,-0.338,0.898,-0.177
30.2,-0.119,1.255,0.122
30.21,-0.093,0.726,0.161
30.22,-0.284,0.988,0.009
30.23,-0.312,0.928,-0.162
30.24,-0.13,1.186,-0.042
30.25,-0.198,0.775,0.148
30.26,-0.123,0.85,0.131
30.27,-0.426,1.116,-0.211
30.28,-0.303,0.787,-0.074
30.29,0.049,1.324,0.101
30.3,-0.167,0.629,0.113
30.31,-0.315,1.051,0.027
30.32,-0.239,1.035,-0.168
30.33,-0.27,1.025,-0.004
30.34,-0.033,0.935,0.154
30.35,-0.109,0.763,-0.01
30.36,-0.545,1.191,-0.198
30.37,-0.076,0.837,-0.092
30.38,-0.085,1.197,0.05
30.39,-0.154,0.703,0.209
30.4,-0.326,1.006,-0.154
30.41,-0.271,0.979,-0.16
30.42,0.01,1.071,0.106
30.43,-0.164,0.976,0.112
30.44,-0.286,0.686,0.058
30.45,-0.363,1.328,-0.202
30.46,-0.142,0.849,-0.03
30.47,-0.19,1.105,0.183
30.48,-0.076,0.789,0.123
30.49,-0.494,1.013,-0.22
30.5,-0.18,1.086,-0.085
30.51,0.003,0.924,0.105
30.52,-0.225,1.028,0.153
30.53,-0.181,0.66,-0.083
30.54,-0.46,1.24,-0.185
30.55,-0.074,0.906,0.136
30.56,-0.13,1.115,0.124
30.57,-0.185,0.749,0.003
30.58,-0.307,1.026,-0.156
30.59,-0.197,1.189,-0.097
30.6,-0.096,0.689,0.14
30.61,-0.12,1.106,0.135
30.62,-0.311,0.71,-0.13
30.63,-0.336,1.247,-0.127
30.64,-0.003,1.002,0.103
30.65,-0.184,0.863,0.139
30.66,-0.283,0.888,0.037
30.67,-0.331,1.062,-0.189
30.68,-0.162,1.019,0.009
30.69,-0.051,0.851,0.183
30.7,-0.205,0.998,0.028
30.71,-0.407,0.81,-0.143
30.72,-0.146,1.318,-0.047
30.73,-0.138,0.753,0.108
30.74,-0.237,0.957,0.191
30.75,-0.281,0.865,-0.116
30.76,-0.324,1.009,-0.17
30.77,-0.121,1.181,0.135
30.78,-0.091,0.718,0.132
30.79,-0.268,1.021,0.009
30.8,-0.305,0.911,-0.187
30.81,-0.153,1.216,-0.019
30.82,-0.17,0.749,0.163
30.83,-0.099,0.932,0.1
30.84,-0.357,0.973,-0.208
30.85,-0.24,0.967,-0.029
30.86,-0.067,1.22,0.091
30.87,-0.104,0.595,0.105
30.88,-0.278,1.091,0.021
30.89,-0.327,0.921,-0.247
30.9,-0.027,1.141,0.013
30.91,-0.147,0.897,0.15
30.92,-0.129,0.809,0.027
30.93,-0.418,1.163,-0.173
30.94,-0.148,0.95,-0.062
30.95,-0.156,1.088,0.132
30.96,-0.125,0.679,0.169
30.97,-0.41,1.129,-0.113
30.98,-0.263,0.839,-0.218
30.99,-0.041,1.107,0.076
31.0,-0.105,0.912,0.12
31.01,-0.237,0.766,-0.0
31.02,-0.413,1.206,-0.218
31.03,-0.035,0.894,-0.038
31.04,-0.138,1.125,0.13
31.05,-0.091,0.685,0.162
31.06,-0.499,1.124,-0.214
31.07,-0.174,0.937,-0.078
31.08,-0.024,1.109,0.078
31.09,-0.119,0.878,0.082
31.1,-0.232,0.775,0.001
31.11,-0.378,1.288,-0.18
31.12,-0.145,0.798,0.073
31.13,-0.089,1.189,0.145
31.14,-0.157,0.658,-0.002
31.15,-0.506,1.101,-0.136
31.16,-0.054,1.089,-0.078
31.17,-0.031,0.928,0.069
31.18,-0.167,0.974,0.186
31.19,-0.325,0.728,-0.11
31.2,-0.415,1.304,-0.086
31.21,0.049,0.886,0.062
31.22,-0.156,0.992,0.086
31.23,-0.303,0.756,0.036
31.24,-0.344,1.149,-0.177
31.25,-0.135,1.061,-0.048
31.26,-0.098,0.825,0.194
31.27,-0.117,0.993,0.016
31.28,-0.45,0.821,-0.101
31.29,-0.22,1.318,-0.097
31.3,-0.039,0.755,0.017
31.31,-0.157,0.965,0.206
31.32,-0.361,0.867,-0.137
31.33,-0.223,0.925,-0.196
31.34,-0.055,1.242,0.084
31.35,-0.142,0.701,0.166
31.36,-0.287,1.047,0.038
31.37,-0.33,0.944,-0.189
31.38,-0.18,1.17,-0.033
31.39,-0.161,0.81,0.185
31.4,-0.13,0.915,0.109
31.41,-0.375,0.95,-0.228
31.42,-0.243,0.966,-0.012
31.43,-0.098,1.252,0.078
31.44,-0.095,0.584,0.081
31.45,-0.255,1.119,0.003
31.46,-0.312,0.9,-0.201
31.47,-0.179,1.123,0.001
31.48,-0.084,0.915,0.128
31.49,-0.247,0.941,-0.018
31.5,-0.404,1.001,-0.188
31.51,-0.068,1.024,-0.061
31.52,-0.22,1.002,0.127
31.53,-0.115,0.698,0.203
31.54,-0.426,1.144,-0.174
31.55,-0.257,0.786,-0.132
31.56,-0.081,1.323,0.086
31.57,-0.107,0.699,0.105
31.58,-0.294,0.924,0.065
31.59,-0.356,1.149,-0.201
31.6,-0.179,0.909,0.014
31.61,-0.174,1.072,0.152
31.62,-0.032,0.674,0.076
31.63,-0.478,1.188,-0.202
31.64,-0.21,0.856,-0.014
31.65,-0.102,1.168,0.092
31.66,-0.218,0.783,0.126
31.67,-0.281,0.927,-0.024
31.68,-0.281,1.115,-0.177
31.69,-0.148,0.92,0.117
31.7,-0.099,1.128,0.124
31.71,-0.183,0.655,-0.004
31.72,-0.51,1.221,-0.14
31.73,-0.08,0.928,-0.063
31.74,-0.178,1.012,0.088
31.75,-0.086,0.859,0.173
31.76,-0.4,0.874,-0.164
31.77,-0.316,1.144,-0.098
31.78,0.088,0.942,0.062
31.79,-0.184,1.029,0.08
31.8,-0.157,0.72,-0.014
31.81,-0.368,1.261,-0.217
31.82,-0.183,0.897,-0.001
31.83,-0.082,0.986,0.189
31.84,-0.133,0.894,0.052
31.85,-0.495,0.855,-0.143
31.86,-0.116,1.279,-0.076
31.87,-0.081,0.78,0.111
31.88,-0.242,1.035,0.217
31.89,-0.244,0.763,-0.1
31.9,-0.336,1.133,-0.177
31.91,-0.057,1.068,0.101
31.92,-0.152,0.823,0.136
31.93,-0.27,0.975,0.057
31.94,-0.325,0.97,-0.167
31.95,-0.174,1.208,-0.042
31.96,-0.118,0.742,0.169
31.97,-0.119,1.049,0.093
31.98,-0.347,0.813,-0.198
31.99,-0.21,1.106,-0.086
32.0,-0.063,1.128,0.079
32.01,-0.199,0.647,0.114
32.02,-0.26,1.092,0.011
32.03,-0.365,0.903,-0.219
32.04,-0.157,1.204,0.046
32.05,-0.051,0.797,0.155
32.06,-0.186,0.924,-0.002
32.07,-0.406,0.982,-0.162
32.08,-0.093,1.065,-0.092
32.09,-0.105,1.008,0.069
32.1,-0.193,0.723,0.174
32.11,-0.35,1.128,-0.136
32.12,-0.254,0.788,-0.176
32.13,-0.043,1.282,0.128
32.14,-0.118,0.741,0.117
32.15,-0.305,0.893,0.002
32.16,-0.298,1.141,-0.214
32.17,-0.161,0.876,-0.016
32.18,-0.259,1.105,0.217
32.19,-0.045,0.686,0.057
32.2,-0.406,1.168,-0.23
32.21,-0.23,0.921,-0.012
32.22,-0.097,1.174,0.092
32.23,-0.179,0.746,0.131
32.24,-0.248,0.87,-0.058
32.25,-0.314,1.181,-0.218
32.26,-0.156,0.859,0.079
32.27,-0.09,1.188,0.105
32.28,-0.055,0.578,0.0
32.29,-0.48,1.256,-0.141
32.3,-0.141,0.977,-0.107
32.31,-0.19,1.097,0.117
32.32,-0.057,0.762,0.096
32.33,-0.383,1.006,-0.21
32.34,-0.217,1.096,-0.067
32.35,-0.128,0.992,0.117
32.36,-0.185,0.94,0.101
32.37,-0.141,0.701,0.004
32.38,-0.419,1.324,-0.223
32.39,-0.05,0.829,-0.044
32.4,-0.114,1.08,0.137
32.41,-0.157,0.76,0.06
32.42,-0.472,1.009,-0.121
32.43,-0.14,1.208,-0.092
32.44,-0.114,0.8,0.069
32.45,-0.159,1.024,0.143
32.46,-0.243,0.725,-0.129
32.47,-0.375,1.214,-0.163
32.48,-0.02,0.96,0.09
32.49,-0.16,0.967,0.12
32.5,-0.205,0.82,0.027
32.51,-0.331,1.029,-0.199
32.52,-0.131,1.165,-0.049
32.53,-0.202,0.778,0.215
32.54,-0.133,1.053,0.1
32.55,-0.345,0.728,-0.233
32.56,-0.2,1.224,-0.028
32.57,-0.121,0.999,0.116
32.58,-0.207,0.813,0.137
32.59,-0.179,0.973,-0.034
32.6,-0.333,0.903,-0.188
32.61,-0.14,1.222,0.061
32.62,-0.029,0.776,0.141
32.63,-0.22,1.016,0.047
32.64,-0.374,0.878,-0.175
32.65,-0.186,1.15,-0.122
32.66,-0.068,0.914,0.136
32.67,-0.145,0.821,0.176
32.68,-0.384,1.026,-0.124
32.69,-0.248,0.827,-0.165
32.7,-0.063,1.342,0.082
32.71,-0.104,0.61,0.142
32.72,-0.286,1.037,0.063
32.73,-0.382,1.05,-0.183
32.74,-0.131,1.008,-0.027
32.75,-0.153,0.985,0.171
32.76,-0.128,0.755,0.119
32.77,-0.386,1.119,-0.181
32.78,-0.229,0.874,-0.039
32.79,-0.142,1.248,0.077
32.8,-0.109,0.647,0.136
32.81,-0.294,1.029,-0.008
32.82,-0.392,1.054,-0.264
32.83,-0.036,0.893,0.017
32.84,-0.189,1.152,0.163
32.85,-0.062,0.645,0.049
32.86,-0.428,1.226,-0.206
32.87,-0.059,0.908,-0.027
32.88,-0.143,1.105,0.098
32.89,-0.217,0.747,0.187
32.9,-0.293,0.968,-0.115
32.91,-0.296,1.075,-0.223
32.92,-0.004,0.967,0.091
32.93,-0.143,1.058,0.101
32.94,-0.248,0.653,0.015
32.95,-0.423,1.315,-0.178
32.96,-0.056,0.849,-0.065
32.97,-0.204,1.031,0.217
32.98,-0.089,0.848,0.101
32.99,-0.372,0.924,-0.214
33.0,-0.288,1.182,-0.028
33.01,-0.111,0.876,0.126
33.02,-0.2,1.007,0.128
33.03,-0.259,0.719,-0.039
33.04,-0.375,1.258,-0.207
33.05,-0.135,0.914,0.052
33.06,-0.096,1.011,0.116
33.07,-0.099,0.873,0.022
33.08,-0.381,0.959,-0.177
33.09,-0.255,1.181,-0.055
33.1,-0.029,0.737,0.085
33.11,-0.165,1.099,0.123
33.12,-0.372,0.681,-0.117
33.13,-0.284,1.316,-0.07
33.14,-0.117,0.908,0.066
33.15,-0.156,0.893,0.15
33.16,-0.156,0.819,-0.021
33.17,-0.415,1.136,-0.225
33.18,-0.075,1.047,-0.034
33.19,-0.032,0.859,0.126
33.2,-0.2,1.021,0.052
33.21,-0.324,0.784,-0.135
33.22,-0.161,1.336,-0.083
33.23,-0.152,0.749,0.113
33.24,-0.156,0.91,0.196
33.25,-0.29,1.0,-0.095
33.26,-0.374,0.884,-0.169
33.27,-0.092,1.219,0.126
33.28,-0.094,0.813,0.133
33.29,-0.259,0.996,0.002
33.3,-0.323,0.931,-0.152
33.31,-0.227,1.218,-0.046
33.32,-0.121,0.742,0.127
33.33,-0.106,0.935,0.185
33.34,-0.436,0.995,-0.186
33.35,-0.27,0.838,-0.045
33.36,-0.03,1.359,0.102
33.37,-0.157,0.586,0.082
33.38,-0.262,1.055,0.025
33.39,-0.246,0.984,-0.225
33.4,-0.24,1.073,-0.007
33.41,-0.061,0.917,0.171
33.42,-0.128,0.791,0.047
33.43,-0.524,1.13,-0.132
33.44,-0.032,0.909,-0.092
33.45,-0.192,1.179,0.108
33.46,-0.199,0.646,0.204
33.47,-0.229,1.097,-0.121
33.48,-0.284,0.948,-0.217
33.49,-0.111,1.067,0.113
33.5,-0.065,0.957,0.12
33.51,-0.237,0.738,0.02
33.52,-0.432,1.295,-0.14
33.53,-0.132,0.839,-0.062
33.54,-0.184,1.098,0.168
33.55,-0.053,0.732,0.114
33.56,-0.465,1.03,-0.153
33.57,-0.189,0.979,-0.115
33.58,0.002,1.076,0.065
33.59,-0.163,0.918,0.126
33.6,-0.241,0.742,0.029
33.61,-0.418,1.357,-0.204
33.62,-0.102,0.781,0.02
33.63,-0.15,1.157,0.187
33.64,-0.138,0.729,0.022
33.65,-0.435,1.027,-0.196
33.66,-0.099,1.166,-0.083
33.67,-0.055,0.791,0.081
33.68,-0.196,1.047,0.178
33.69,-0.299,0.732,-0.121
33.7,-0.316,1.236,-0.177
33.71,-0.039,0.954,0.107
33.72,-0.179,0.989,0.122
33.73,-0.19,0.802,0.02
33.74,-0.415,1.083,-0.137
33.75,-0.097,1.154,-0.037
33.76,-0.149,0.739,0.167
33.77,-0.099,1.061,0.078
33.78,-0.359,0.745,-0.204
33.79,-0.337,1.227,0.009
33.8,-0.004,0.936,0.081
33.81,-0.125,0.867,0.076
33.82,-0.298,0.938,-0.032
33.83,-0.324,0.98,-0.182
33.84,-0.127,1.24,0.043
33.85,-0.053,0.714,0.137
33.86,-0.176,1.018,-0.032
33.87,-0.393,0.879,-0.138
33.88,-0.224,1.171,-0.029
33.89,-0.09,0.788,0.083
33.9,-0.089,0.893,0.164
33.91,-0.358,1.035,-0.172
33.92,-0.317,0.882,-0.066
33.93,-0.116,1.302,0.092
33.94,-0.085,0.607,0.125
33.95,-0.303,1.103,-0.028
33.96,-0.331,0.853,-0.217
33.97,-0.148,1.19,0.045
33.98,-0.067,0.821,0.17
33.99,-0.161,0.89,0.023
34.0,-0.115,1.176,0.154
34.01,-0.144,0.606,-0.015
34.02,-0.496,1.269,-0.127
34.03,-0.086,0.899,-0.091
34.04,-0.208,1.051,0.149
34.05,-0.108,0.876,0.168
34.06,-0.382,0.869,-0.161
34.07,-0.301,1.153,-0.077
34.08,-0.004,0.921,0.056
34.09,-0.16,1.01,0.124
34.1,-0.23,0.677,0.017
34.11,-0.344,1.276,-0.244
34.12,-0.126,0.896,-0.036
34.13,-0.092,1.022,0.192
34.14,-0.164,0.877,0.05
34.15,-0.433,0.854,-0.176
34.16,-0.143,1.305,-0.065
34.17,-0.082,0.799,0.144
34.18,-0.201,1.028,0.185
34.19,-0.267,0.769,-0.087
34.2,-0.364,1.144,-0.209
34.21,-0.116,1.031,0.133
34.22,-0.093,0.928,0.138
34.23,-0.214,0.916,0.015
34.24,-0.384,0.907,-0.143
34.25,-0.193,1.28,-0.057
34.26,-0.1,0.652,0.105
34.27,-0.166,1.072,0.178
34.28,-0.36,0.82,-0.217
34.29,-0.305,1.045,-0.096
34.3,0.017,1.147,0.083
34.31,-0.156,0.677,0.063
34.32,-0.224,1.05,0.001
34.33,-0.264,0.935,-0.227
34.34,-0.132,1.193,0.019
34.35,-0.15,0.794,0.221
34.36,-0.173,0.944,0.029
34.37,-0.449,0.924,-0.2
34.38,-0.089,1.073,-0.061
34.39,-0.105,1.046,0.03
34.4,-0.157,0.693,0.209
34.41,-0.277,1.16,-0.123
34.42,-0.32,0.819,-0.176
34.43,-0.048,1.263,0.153
34.44,-0.139,0.76,0.115
34.45,-0.299,0.887,0.015
34.46,-0.339,1.13,-0.208
34.47,-0.142,0.904,-0.032
34.48,-0.193,1.085,0.156
34.49,-0.065,0.73,0.137
34.5,-0.447,1.121,-0.221
34.51,-0.198,0.85,-0.003
34.52,-0.061,1.234,0.086
34.53,-0.206,0.745,0.123
34.54,-0.236,0.867,0.022
34.55,-0.365,1.177,-0.23
34.56,-0.127,0.891,0.053
34.57,-0.131,1.167,0.128
34.58,-0.065,0.628,0.008
34.59,-0.453,1.257,-0.141
34.6,-0.094,0.957,-0.058
34.61,-0.124,1.005,0.142
34.62,-0.22,0.878,0.186
34.63,-0.365,0.855,-0.173
34.64,-0.266,1.154,-0.215
34.65,0.004,0.95,0.106
34.66,-0.212,1.087,0.136
34.67,-0.267,0.65,0.041
34.68,-0.339,1.265,-0.216
34.69,-0.048,0.812,-0.022
34.7,-0.152,1.144,0.183
34.71,-0.142,0.733,0.029
34.72,-0.384,0.969,-0.194
34.73,-0.117,1.184,-0.092
34.74,-0.078,0.822,0.088
34.75,-0.23,1.02,0.146
34.76,-0.221,0.737,-0.149
34.77,-0.312,1.224,-0.16
34.78,-0.116,0.963,0.142
34.79,-0.089,0.97,0.133
34.8,-0.273,0.833,0.013
34.81,-0.338,1.063,-0.209
34.82,-0.142,1.131,-0.031
34.83,-0.124,0.724,0.152
34.84,-0.16,1.078,0.135
34.85,-0.343,0.766,-0.202
34.86,-0.287,1.188,-0.11
34.87,0.018,0.943,0.064
34.88,-0.173,0.862,0.128
34.89,-0.306,0.947,-0.05
34.9,-0.306,0.977,-0.265
34.91,-0.061,1.121,0.031
34.92,-0.113,0.771,0.222
34.93,-0.182,1.022,0.044
34.94,-0.402,0.79,-0.213
34.95,-0.047,1.224,-0.073
34.96,-0.076,0.873,0.104
34.97,-0.289,0.806,0.208
34.98,-0.302,1.042,-0.12
34.99,-0.274,0.931,-0.164
35.0,-0.108,1.296,0.119
35.01,-0.073,0.619,0.153
35.02,-0.337,1.027,0.016
35.03,-0.299,0.972,-0.228
35.04,-0.077,1.106,-0.06
35.05,-0.16,0.88,0.169
35.06,-0.124,0.775,0.081
35.07,-0.465,1.181,-0.175
35.08,-0.228,0.896,-0.068
35.09,-0.096,1.21,0.082
35.1,-0.103,0.664,0.121
35.11,-0.319,1.044,-0.076
35.12,-0.245,0.928,-0.189
35.13,-0.084,1.075,0.086
35.14,-0.141,0.992,0.127
35.15,-0.151,0.682,0.058
35.16,-0.506,1.271,-0.185
35.17,-0.087,0.843,-0.041
35.18,-0.192,1.139,0.117
35.19,-0.141,0.739,0.179
35.2,-0.414,1.017,-0.154
35.21,-0.26,1.024,-0.104
35.22,-0.054,1.032,0.112
35.23,-0.156,0.96,0.125
35.24,-0.29,0.683,0.016
35.25,-0.329,1.35,-0.239
35.26,-0.071,0.854,-0.013
35.27,-0.223,1.097,0.225
35.28,-0.157,0.764,0.083
35.29,-0.428,1.029,-0.241
35.3,-0.07,1.135,-0.066
35.31,-0.104,0.858,0.126
35.32,-0.202,0.99,0.152
35.33,-0.245,0.731,-0.128
35.34,-0.276,1.268,-0.18
35.35,-0.071,0.904,0.124
35.36,-0.181,0.949,0.146
35.37,-0.25,0.812,0.016
35.38,-0.334,1.054,-0.173
35.39,-0.127,1.129,-0.048
35.4,-0.144,0.744,0.164
35.41,-0.154,1.108,0.098
35.42,-0.329,0.755,-0.242
35.43,-0.271,1.233,-0.086
35.44,0.054,0.926,0.084
35.45,-0.219,0.866,0.144
35.46,-0.263,0.917,-0.091
35.47,-0.23,0.992,-0.168
35.48,-0.232,1.257,0.072
35.49,-0.041,0.667,0.171
35.5,-0.242,1.048,0.042
35.51,-0.358,0.889,-0.162
35.52,-0.179,1.213,0.007
35.53,-0.132,0.748,0.138
35.54,-0.152,0.994,0.087
35.55,-0.331,0.886,-0.188
35.56,-0.22,1.025,-0.05
35.57,0.002,1.174,0.048
35.58,-0.15,0.622,0.114
35.59,-0.333,1.074,-0.029
35.6,-0.274,0.865,-0.19
35.61,-0.112,1.23,-0.004
35.62,-0.046,0.83,0.174
35.63,-0.258,0.882,0.082
35.64,-0.422,1.049,-0.159
35.65,-0.102,0.99,-0.084
35.66,-0.178,1.065,0.075
35.67,-0.088,0.68,0.168
35.68,-0.37,1.178,-0.136
35.69,-0.282,0.814,-0.167
35.7,-0.059,1.185,0.12
35.71,-0.112,0.826,0.114
35.72,-0.223,0.83,-0.005
35.73,-0.33,1.202,-0.199
35.74,-0.116,0.883,-0.035
35.75,-0.175,1.077,0.181
35.76,-0.028,0.735,0.143
35.77,-0.552,1.147,-0.175
35.78,-0.247,0.838,-0.046
35.79,-0.004,1.209,0.127
35.8,-0.198,0.822,0.069
35.81,-0.178,0.805,-0.008
35.82,-0.336,1.258,-0.205
35.83,-0.2,0.813,0.078
35.84,-0.074,1.185,0.108
35.85,-0.128,0.642,-0.049
35.86,-0.464,1.177,-0.118
35.87,-0.102,1.015,-0.075
35.88,-0.153,0.943,0.089
35.89,-0.215,0.924,0.205
35.9,-0.306,0.751,-0.152
35.91,-0.257,1.181,-0.16
35.92,-0.005,0.936,0.123
35.93,-0.225,1.061,0.162
35.94,-0.289,0.676,0.002
35.95,-0.305,1.23,-0.147
35.96,-0.121,1.011,-0.068
35.97,-0.178,0.858,0.245
35.98,-0.14,1.013,0.106
35.99,-0.365,0.763,-0.219
36.0,-0.324,1.277,-0.06
36.01,0.027,0.856,0.065
36.02,-0.21,0.956,0.124
36.03,-0.258,0.822,-0.037
36.04,-0.315,1.146,-0.19
36.05,-0.18,1.057,0.075
36.06,-0.095,0.835,0.16
36.07,-0.16,1.003,0.021
36.08,-0.389,0.859,-0.183
36.09,-0.087,1.269,-0.116
36.1,-0.07,0.74,0.063
36.11,-0.197,0.971,0.18
36.12,-0.305,0.888,-0.15
36.13,-0.312,0.966,-0.114
36.14,-0.091,1.206,0.088
36.15,-0.115,0.67,0.158
36.16,-0.228,1.043,0.033
36.17,-0.397,0.962,-0.168
36.18,-0.122,1.131,-0.026
36.19,-0.167,0.799,0.175
36.2,-0.183,0.929,0.136
36.21,-0.402,0.959,-0.188
36.22,-0.219,0.956,-0.034
36.23,-0.118,1.243,0.114
36.24,-0.142,0.563,0.095
36.25,-0.279,1.146,-0.003
36.26,-0.331,0.933,-0.229
36.27,-0.19,1.092,0.031
36.28,-0.041,0.906,0.14
36.29,-0.168,0.843,0.041
36.3,-0.388,1.081,-0.155
36.31,-0.152,0.95,-0.053
36.32,-0.175,1.09,0.086
36.33,-0.084,0.754,0.168
36.34,-0.433,1.155,-0.17
36.35,-0.209,0.69,-0.14
36.36,-0.057,1.34,0.099
36.37,-0.116,0.714,0.108
36.38,-0.252,0.918,0.013
36.39,-0.341,1.121,-0.193
36.4,-0.107,0.898,-0.052
36.41,-0.151,1.026,0.169
36.42,-0.115,0.711,0.1
36.43,-0.451,1.161,-0.209
36.44,-0.16,0.904,-0.017
36.45,-0.109,1.195,0.116
36.46,-0.125,0.7,0.127
36.47,-0.316,0.936,-0.018
36.48,-0.364,1.158,-0.249
36.49,-0.092,0.869,0.045
36.5,-0.108,1.188,0.132
36.51,-0.103,0.614,-0.011
36.52,-0.486,1.224,-0.137
36.53,-0.074,0.949,-0.053
36.54,-0.099,1.042,0.078
36.55,-0.171,0.824,0.212
36.56,-0.315,0.865,-0.126
36.57,-0.305,1.173,-0.157
36.58,-0.022,0.903,0.067
36.59,-0.144,1.072,0.115
36.6,-0.203,0.65,-0.001
36.61,-0.37,1.311,-0.214
36.62,-0.059,0.905,-0.063
36.63,-0.181,0.968,0.184
36.64,-0.135,0.898,0.089
36.65,-0.402,0.849,-0.202
36.66,-0.189,1.264,-0.078
36.67,-0.103,0.82,0.072
36.68,-0.136,0.997,0.115
36.69,-0.226,0.762,-0.073
36.7,-0.439,1.177,-0.155
36.71,-0.067,0.997,0.052
36.72,-0.108,0.959,0.137
36.73,-0.199,0.931,0.012
36.74,-0.335,0.844,-0.174
36.75,-0.212,1.336,-0.08
36.76,-0.047,0.669,0.128
36.77,-0.194,1.042,0.146
36.78,-0.327,0.835,-0.126
36.79,-0.218,1.07,-0.163
36.8,-0.161,1.082,0.119
36.81,-0.094,0.771,0.173
36.82,-0.202,1.032,-0.017
36.83,-0.41,0.899,-0.168
36.84,-0.105,1.229,-0.014
36.85,-0.096,0.724,0.15
36.86,-0.177,1.011,0.11
36.87,-0.292,0.924,-0.201
36.88,-0.237,1.059,-0.071
36.89,-0.147,1.099,0.1
36.9,-0.081,0.631,0.069
36.91,-0.326,1.144,-0.058
36.92,-0.314,0.874,-0.174
36.93,-0.122,1.196,0.025
36.94,-0.024,0.797,0.153
36.95,-0.242,0.89,0.059
36.96,-0.364,1.004,-0.187
36.97,-0.102,1.024,-0.08
36.98,-0.127,1.029,0.108
36.99,-0.127,0.683,0.131
37.0,-0.42,1.156,-0.129
37.01,-0.198,0.842,-0.157
37.02,-0.097,1.257,0.079
37.03,-0.093,0.703,0.148
37.04,-0.271,0.898,0.01
37.05,-0.367,1.169,-0.205
37.06,-0.041,0.851,-0.044
37.07,-0.179,1.123,0.164
37.08,-0.133,0.636,0.104
37.09,-0.436,1.204,-0.18
37.1,-0.169,0.933,-0.067
37.11,-0.1,1.125,0.091
37.12,-0.141,0.786,0.168
37.13,-0.292,0.855,-0.047
37.14,-0.256,0.964,-0.194
37.15,-0.083,1.012,0.136
37.16,-0.175,1.042,0.142
37.17,-0.206,0.665,0.019
37.18,-0.433,1.275,-0.17
37.19,-0.112,0.869,-0.01
37.2,-0.213,1.1,0.129
37.21,-0.084,0.794,0.116
37.22,-0.414,0.966,-0.207
37.23,-0.194,1.088,-0.061
37.24,-0.045,0.99,0.085
37.25,-0.166,0.941,0.084
37.26,-0.223,0.708,0.005
37.27,-0.361,1.331,-0.208
37.28,-0.062,0.818,-0.025
37.29,-0.163,1.125,0.168
37.3,-0.098,0.792,0.042
37.31,-0.448,0.949,-0.152
37.32,-0.096,1.25,-0.087
37.33,-0.057,0.793,0.094
37.34,-0.274,1.009,0.202
37.35,-0.228,0.778,-0.078
37.36,-0.305,1.215,-0.237
37.37,-0.069,0.943,0.104
37.38,-0.079,0.963,0.157
37.39,-0.317,0.86,0.043
37.4,-0.366,0.992,-0.159
37.41,-0.047,1.198,-0.084
37.42,-0.173,0.762,0.194
37.43,-0.172,1.053,0.137
37.44,-0.34,0.813,-0.187
37.45,-0.3,1.192,-0.084
37.46,-0.019,0.964,0.109
37.47,-0.169,0.806,0.13
37.48,-0.322,0.978,-0.01
37.49,-0.236,0.911,-0.204
37.5,-0.147,1.213,0.03
37.51,-0.1,0.754,0.21
37.52,-0.173,1.036,0.009
37.53,-0.375,0.819,-0.169
37.54,-0.17,1.167,-0.077
37.55,-0.04,0.925,0.103
37.56,-0.309,0.767,0.201
37.57,-0.33,1.087,-0.086
37.58,-0.303,0.827,-0.175
37.59,-0.123,1.272,0.134
37.6,-0.101,0.707,0.148
37.61,-0.327,0.968,-0.009
37.62,-0.342,1.013,-0.195
37.63,-0.124,1.094,-0.068
37.64,-0.169,0.937,0.157
37.65,-0.075,0.764,0.087
37.66,-0.367,1.147,-0.22
37.67,-0.233,0.84,-0.066
37.68,-0.139,1.276,0.081
37.69,-0.049,0.649,0.072
37.7,-0.364,0.988,-0.034
37.71,-0.219,1.022,-0.208
37.72,-0.112,0.993,0.006
37.73,-0.182,1.05,0.142
37.74,-0.002,0.699,-0.007
37.75,-0.496,1.225,-0.169
37.76,-0.147,0.892,-0.043
37.77,-0.094,1.14,0.073
37.78,-0.148,0.742,0.171
37.79,-0.378,0.946,-0.093
37.8,-0.257,1.087,-0.179
37.81,-0.14,0.954,0.121
37.82,-0.156,1.007,0.148
37.83,-0.212,0.638,-0.003
37.84,-0.379,1.342,-0.204
37.85,-0.029,0.843,-0.058
37.86,-0.203,1.043,0.204
37.87,-0.092,0.831,0.07
37.88,-0.373,0.958,-0.198
37.89,-0.229,1.177,-0.062
37.9,-0.06,0.912,0.099
37.91,-0.148,0.99,0.088
37.92,-0.219,0.685,-0.045
37.93,-0.382,1.262,-0.198
37.94,-0.061,0.915,0.086
37.95,-0.145,1.042,0.118
37.96,-0.106,0.712,0.02
37.97,-0.411,1.191,-0.183
37.98,-0.161,1.058,-0.057
37.99,-0.139,0.864,0.198
38.0,-0.18,1.012,0.097
38.01,-0.349,0.724,-0.156
38.02,-0.209,1.289,-0.085
38.03,-0.103,0.856,0.122
38.04,-0.224,0.922,0.183
38.05,-0.156,0.826,-0.032
38.06,-0.42,1.111,-0.207
38.07,-0.062,1.056,0.037
38.08,-0.167,0.898,0.177
38.09,-0.282,0.987,0.085
38.1,-0.326,0.802,-0.189
38.11,-0.238,1.363,-0.093
38.12,-0.093,0.711,0.069
38.13,-0.136,0.954,0.193
38.14,-0.318,0.928,-0.12
38.15,-0.307,0.929,-0.203
38.16,0.008,1.213,0.068
38.17,-0.156,0.71,0.155
38.18,-0.234,1.032,0.009
38.19,-0.36,0.965,-0.185
38.2,-0.154,1.168,-0.065
38.21,-0.142,0.764,0.167
38.22,-0.156,0.929,0.111
38.23,-0.397,0.977,-0.176
38.24,-0.231,0.946,-0.034
38.25,-0.156,1.245,0.132
38.26,-0.155,0.61,0.095
38.27,-0.271,1.131,-0.019
38.28,-0.339,0.91,-0.211
38.29,-0.194,1.074,0.04
38.3,-0.049,0.901,0.165
38.31,-0.195,0.847,0.019
38.32,-0.427,1.076,-0.159
38.33,-0.104,0.94,-0.043
38.34,-0.201,1.133,0.107
38.35,-0.144,0.66,0.194
38.36,-0.341,1.115,-0.132
38.37,-0.303,0.851,-0.171
38.38,-0.099,1.167,0.132
38.39,-0.144,0.872,0.097
38.4,-0.2,0.746,-0.008
38.41,-0.356,1.314,-0.192
38.42,-0.137,0.864,-0.042
38.43,-0.244,1.136,0.169
38.44,-0.066,0.695,0.109
38.45,-0.465,1.074,-0.144
38.46,-0.212,0.983,-0.116
38.47,-0.025,1.069,0.05
38.48,-0.141,0.89,0.098
38.49,-0.202,0.71,-0.03
38.5,-0.397,1.301,-0.196
38.51,-0.068,0.838,0.009
38.52,-0.166,1.14,0.148
38.53,-0.125,0.704,0.046
38.54,-0.399,1.093,-0.196
38.55,-0.126,1.097,-0.069
38.56,-0.098,0.877,0.094
38.57,-0.138,0.987,0.13
38.58,-0.309,0.743,-0.117
38.59,-0.317,1.243,-0.159
38.6,-0.019,0.936,0.081
38.61,-0.163,1.015,0.136
38.62,-0.16,0.762,0.046
38.63,-0.508,1.085,-0.186
38.64,-0.104,1.035,0.019
38.65,-0.079,0.848,0.147
38.66,-0.257,1.035,0.108
38.67,-0.34,0.722,-0.205
38.68,-0.144,1.288,-0.099
38.69,-0.109,0.872,0.137
38.7,-0.136,0.89,0.091
38.71,-0.255,0.876,-0.033
38.72,-0.281,0.998,-0.223
38.73,-0.088,1.174,-0.004
38.74,-0.164,0.77,0.199
38.75,-0.145,1.058,0.024
38.76,-0.387,0.81,-0.212
38.77,-0.115,1.248,-0.054
38.78,-0.073,0.74,0.106
38.79,-0.226,1.049,0.152
38.8,-0.335,0.836,-0.141
38.81,-0.302,1.077,-0.132
38.82,-0.12,1.083,0.159
38.83,-0.079,0.73,0.121
38.84,-0.275,1.001,-0.063
38.85,-0.328,0.884,-0.142
38.86,-0.145,1.264,0.047
38.87,-0.193,0.697,0.214
38.88,-0.125,0.993,0.06
38.89,-0.355,0.946,-0.221
38.9,-0.206,1.029,-0.016
38.91,-0.071,1.094,0.128
38.92,-0.207,0.69,0.111
38.93,-0.261,1.13,-0.096
38.94,-0.24,0.887,-0.186
38.95,-0.18,1.22,0.149
38.96,-0.141,0.727,0.187
38.97,-0.273,0.923,-0.032
38.98,-0.413,1.067,-0.201
38.99,-0.092,0.928,-0.032
39.0,-0.189,1.085,0.075
39.01,-0.09,0.714,0.108
39.02,-0.378,1.168,-0.16
39.03,-0.283,0.866,-0.08
39.04,-0.009,1.15,0.075
39.05,-0.112,0.778,0.132
39.06,-0.229,0.881,-0.044
39.07,-0.401,1.148,-0.212
39.08,-0.129,0.926,0.128
39.09,-0.256,1.142,0.16
39.1,-0.081,0.634,0.022
39.11,-0.441,1.281,-0.219
39.12,-0.164,0.867,-0.065
39.13,-0.025,0.993,0.142
39.14,-0.197,0.907,0.11
39.15,-0.341,0.841,-0.163
39.16,-0.201,1.131,-0.144
39.17,-0.032,0.956,0.137
39.18,-0.23,1.072,0.109
39.19,-0.124,0.653,-0.009
39.2,-0.414,1.286,-0.223
39.21,-0.109,0.89,0.005
39.22,-0.096,1.019,0.185
39.23,-0.118,0.9,0.044
39.24,-0.373,0.856,-0.156
39.25,-0.224,1.293,-0.078
39.26,-0.036,0.797,0.125
39.27,-0.22,1.038,0.129
39.28,-0.228,0.742,-0.071
39.29,-0.365,1.191,-0.2
39.3,-0.109,0.969,0.086
39.31,-0.093,0.914,0.171
39.32,-0.196,0.915,0.026
39.33,-0.418,0.915,-0.155
39.34,-0.13,1.237,-0.065
39.35,-0.027,0.73,0.128
39.36,-0.197,1.065,0.159
39.37,-0.404,0.783,-0.123
39.38,-0.33,1.126,-0.05
39.39,0.029,1.098,0.052
39.4,-0.206,0.692,0.12
39.41,-0.267,1.049,0.042
39.42,-0.33,0.934,-0.243
39.43,-0.242,1.191,0.037
39.44,-0.027,0.789,0.166
39.45,-0.16,0.976,-0.004
39.46,-0.434,0.917,-0.16
39.47,-0.1,1.098,-0.067
39.48,-0.134,0.963,0.05
39.49,-0.182,0.701,0.207
39.5,-0.385,1.135,-0.122
39.51,-0.206,0.801,-0.16
39.52,-0.07,1.313,0.132
39.53,-0.086,0.648,0.08
39.54,-0.296,0.948,0.076
39.55,-0.348,1.108,-0.2
39.56,-0.086,0.91,-0.043
39.57,-0.181,1.059,0.176
39.58,-0.113,0.703,0.071
39.59,-0.437,1.135,-0.19
39.6,-0.058,0.917,-0.123
39.61,-0.084,1.132,0.095
39.62,-0.17,0.682,0.175
39.63,-0.386,1.059,-0.089
39.64,-0.196,0.869,-0.254
39.65,-0.062,1.167,0.143
39.66,-0.167,0.922,0.162
39.67,-0.259,0.721,0.049
39.68,-0.404,1.305,-0.175
39.69,-0.099,0.832,-0.074
39.7,-0.186,1.108,0.204
39.71,-0.1,0.742,0.087
39.72,-0.47,1.009,-0.197
39.73,-0.155,1.001,-0.06
39.74,-0.046,1.079,0.085
39.75,-0.153,0.884,0.123
39.76,-0.242,0.729,-0.027
39.77,-0.373,1.318,-0.205
39.78,-0.082,0.799,0.028
39.79,-0.126,1.115,0.207
39.8,-0.186,0.737,0.024
39.81,-0.407,1.061,-0.19
39.82,-0.132,1.145,-0.026
39.83,-0.143,0.859,0.152
39.84,-0.218,0.997,0.164
39.85,-0.233,0.731,-0.136
39.86,-0.345,1.258,-0.145
39.87,-0.096,0.914,0.171
39.88,-0.193,1.035,0.144
39.89,-0.233,0.748,-0.058
39.9,-0.326,1.054,-0.134
39.91,-0.166,1.158,0.009
39.92,-0.141,0.737,0.203
39.93,-0.195,1.046,0.035
39.94,-0.344,0.754,-0.178
39.95,-0.219,1.313,-0.04
39.96,-0.071,0.877,0.124
39.97,-0.179,0.898,0.142
39.98,-0.232,0.952,-0.105
39.99,-0.315,0.981,-0.171
40.0,-0.133,1.2,0.088
40.01,-0.037,0.748,0.128
40.02,-0.327,1.037,0.017
40.03,-0.302,0.881,-0.156
40.04,-0.235,1.208,-0.035
40.05,-0.163,0.79,0.163
40.06,-0.072,0.914,0.101
40.07,-0.426,0.978,-0.18
40.08,-0.175,0.977,-0.07
40.09,-0.049,1.274,0.022
40.1,-0.136,0.536,0.134
40.11,-0.165,1.142,0.034
40.12,-0.455,0.951,-0.228
40.13,-0.176,1.017,0.038
40.14,0.047,1.011,0.1
40.15,-0.221,0.784,0.014
40.16,-0.445,1.057,-0.165
40.17,-0.035,0.945,-0.134
40.18,-0.134,1.122,0.034
40.19,-0.027,0.681,0.151
40.2,-0.365,1.094,-0.134
40.21,-0.254,0.869,-0.117
40.22,-0.099,1.253,0.125
40.23,-0.184,0.872,0.141
40.24,-0.193,0.767,0.058
40.25,-0.393,1.32,-0.194
40.26,-0.261,0.812,0.014
40.27,-0.128,1.125,0.18
40.28,-0.093,0.729,0.108
40.29,-0.469,1.066,-0.171
40.3,-0.157,1.003,-0.125
40.31,-0.139,1.054,0.083
40.32,-0.177,0.886,0.175
40.33,-0.195,0.742,-0.009
40.34,-0.492,1.313,-0.194
40.35,-0.069,0.782,0.025
40.36,-0.079,1.217,0.092
40.37,-0.148,0.64,0.058
40.38,-0.441,1.141,-0.156
40.39,-0.075,1.16,-0.078
40.4,-0.2,0.827,0.06
40.41,-0.091,0.876,0.173
40.42,-0.421,0.843,-0.132
40.43,-0.33,1.156,-0.119
40.44,0.046,0.937,0.094
40.45,-0.229,1.017,0.1
40.46,-0.158,0.685,0.077
40.47,-0.434,1.314,-0.234
40.48,-0.141,0.838,-0.036
40.49,-0.094,1.053,0.204
40.5,-0.203,0.919,0.051
40.51,-0.402,0.814,-0.177
40.52,-0.155,1.316,-0.062
40.53,-0.022,0.727,0.092
40.54,-0.234,1.052,0.227
40.55,-0.208,0.768,-0.108
40.56,-0.39,1.106,-0.188
40.57,-0.027,1.007,0.083
40.58,-0.092,0.95,0.125
40.59,-0.243,0.9,0.025
40.6,-0.345,0.883,-0.175
40.61,-0.103,1.302,-0.078
40.62,-0.198,0.681,0.189
40.63,-0.13,1.03,0.144
40.64,-0.333,0.805,-0.155
40.65,-0.326,1.094,-0.06
40.66,-0.008,1.094,0.044
40.67,-0.144,0.705,0.124
40.68,-0.29,1.059,0.004
40.69,-0.298,0.906,-0.204
40.7,-0.157,1.204,-0.021
40.71,-0.054,0.795,0.177
40.72,-0.14,0.954,0.062
40.73,-0.441,0.928,-0.147
40.74,-0.024,1.062,-0.133
40.75,-0.165,1.034,0.093
40.76,-0.126,0.716,0.17
40.77,-0.291,1.166,-0.123
40.78,-0.378,0.768,-0.181
40.79,-0.052,1.258,0.132
40.8,-0.15,0.793,0.149
40.81,-0.26,0.879,0.051
40.82,-0.3,1.044,-0.188
40.83,-0.155,0.975,-0.073
40.84,-0.182,1.013,0.178
40.85,-0.008,0.74,0.113
40.86,-0.528,1.135,-0.161
40.87,-0.188,0.844,-0.063
40.88,-0.044,1.337,0.026
40.89,-0.185,0.654,0.125
40.9,-0.12,0.955,0.023
40.91,-0.424,1.219,-0.232
40.92,-0.139,0.815,0.004
40.93,-0.084,1.178,0.135
40.94,-0.109,0.631,0.073
40.95,-0.475,1.219,-0.141
40.96,-0.105,0.96,-0.093
40.97,-0.141,1.049,0.062
40.98,-0.147,0.836,0.192
40.99,-0.294,0.872,-0.078
41.0,-0.351,1.129,-0.181
41.01,-0.094,0.933,0.113
41.02,-0.151,1.141,0.097
41.03,-0.129,0.617,-0.025
41.04,-0.418,1.29,-0.18
41.05,-0.057,0.912,-0.08
41.06,-0.172,0.984,0.172
41.07,-0.152,0.937,0.153
41.08,-0.357,0.789,-0.161
41.09,-0.284,1.209,-0.124
41.1,0.017,0.901,0.08
41.11,-0.197,1.008,0.087
41.12,-0.219,0.708,0.023
41.13,-0.271,1.247,-0.229
41.14,-0.161,0.919,-0.035
41.15,-0.134,0.928,0.216
41.16,-0.075,0.963,0.023
41.17,-0.426,0.792,-0.19
41.18,-0.221,1.298,-0.04
41.19,-0.021,0.78,0.07
41.2,-0.218,0.994,0.149
41.21,-0.191,0.771,-0.004
41.22,-0.342,1.233,-0.184
41.23,-0.161,0.898,0.137
41.24,-0.085,0.994,0.104
41.25,-0.217,0.818,0.009
41.26,-0.46,1.014,-0.11
41.27,-0.078,1.199,-0.063
41.28,-0.173,0.731,0.111
41.29,-0.11,1.085,0.131
41.3,-0.276,0.776,-0.184
41.31,-0.37,1.168,-0.073
41.32,0.011,0.973,0.076
41.33,-0.139,0.842,0.133
41.34,-0.345,0.97,0.051
41.35,-0.342,0.986,-0.21
41.36,-0.188,1.167,-0.029
41.37,-0.056,0.734,0.172
41.38,-0.15,1.045,0.041
41.39,-0.393,0.849,-0.188
41.4,-0.139,1.163,-0.075
41.41,-0.097,0.925,0.129
41.42,-0.259,0.81,0.208
41.43,-0.328,1.062,-0.073
41.44,-0.255,0.825,-0.198
41.45,-0.117,1.274,0.06
41.46,-0.018,0.723,0.128
41.47,-0.267,1.027,0.04
41.48,-0.423,0.942,-0.171
41.49,-0.15,1.107,-0.029
41.5,-0.162,0.93,0.148
41.51,-0.192,0.771,0.172
41.52,-0.374,1.133,-0.166
41.53,-0.298,0.801,-0.081
41.54,-0.084,1.271,0.065
41.55,-0.102,0.65,0.114
41.56,-0.273,1.007,0.03
41.57,-0.386,1.039,-0.21
41.58,-0.109,0.965,-0.051
41.59,-0.142,1.033,0.153
41.6,-0.168,0.691,0.084
41.61,-0.495,1.159,-0.154
41.62,-0.184,0.874,-0.007
41.63,-0.094,1.237,0.046
41.64,-0.153,0.632,0.146
41.65,-0.225,1.003,-0.044
41.66,-0.369,1.089,-0.183
41.67,-0.148,0.929,0.043
41.68,-0.049,1.087,0.143
41.69,-0.208,0.632,0.043
41.7,-0.451,1.278,-0.119
41.71,-0.199,0.919,-0.065
41.72,-0.175,1.047,0.067
41.73,-0.004,0.842,0.162
41.74,-0.394,0.938,-0.141
41.75,-0.343,1.036,-0.125
41.76,0.065,1.005,0.033
41.77,-0.165,1.01,0.111
41.78,-0.171,0.65,0.057
41.79,-0.349,1.346,-0.242
41.8,-0.121,0.831,-0.041
41.81,-0.225,1.103,0.203
41.82,-0.041,0.817,0.083
41.83,-0.439,0.885,-0.163
41.84,-0.196,1.203,-0.091
41.85,-0.009,0.956,0.052
41.86,-0.198,0.949,0.122
41.87,-0.146,0.718,0.046
41.88,-0.456,1.338,-0.25
41.89,-0.056,0.814,-0.048
41.9,-0.099,1.108,0.189
41.91,-0.195,0.886,0.074
41.92,-0.441,0.855,-0.137
41.93,-0.172,1.338,-0.067
41.94,-0.117,0.798,0.124
41.95,-0.227,0.955,0.16
41.96,-0.16,0.773,-0.092
41.97,-0.369,1.212,-0.175
41.98,-0.137,0.948,0.093
41.99,-0.131,0.976,0.127
42.0,-0.163,0.9,0.013
42.01,-0.456,0.905,-0.168
42.02,-0.149,1.25,-0.089
42.03,-0.054,0.703,0.087
42.04,-0.154,1.071,0.145
42.05,-0.274,0.721,-0.158
42.06,-0.363,1.24,-0.087
42.07,-0.027,0.917,0.07
42.08,-0.15,0.889,0.107
42.09,-0.284,0.932,0.049
42.1,-0.434,1.023,-0.189
42.11,-0.114,1.114,-0.017
42.12,-0.117,0.835,0.224
42.13,-0.16,1.003,0.07
42.14,-0.378,0.793,-0.186
42.15,-0.099,1.27,-0.111
42.16,-0.079,0.839,0.045
42.17,-0.21,0.815,0.163
42.18,-0.189,1.02,-0.065
42.19,-0.34,0.923,-0.193
42.2,-0.21,1.195,0.071
42.21,-0.003,0.716,0.11
42.22,-0.24,1.028,-0.013
42.23,-0.341,0.924,-0.16
42.24,-0.124,1.173,-0.082
42.25,-0.128,0.831,0.069
42.26,-0.087,0.822,0.194
42.27,-0.371,1.097,-0.138
42.28,-0.353,0.798,-0.114
42.29,-0.026,1.301,0.026
42.3,-0.048,0.644,0.065
42.31,-0.321,1.085,0.087
42.32,-0.292,0.995,-0.209
42.33,-0.188,0.99,-0.072
42.34,-0.342,1.042,0.088
42.35,-0.248,0.945,-0.21
42.36,-0.176,1.197,-0.091
42.37,-0.123,0.776,0.215
42.38,-0.125,0.972,0.046
42.39,-0.456,0.899,-0.189
42.4,-0.168,1.058,-0.048
42.41,-0.083,1.126,0.026
42.42,-0.202,0.603,0.189
42.43,-0.187,1.15,-0.023
42.44,-0.297,0.853,-0.235
42.45,-0.168,1.181,0.017
42.46,-0.0,0.856,0.149
42.47,-0.209,0.901,0.02
42.48,-0.393,1.031,-0.152
42.49,-0.073,1.047,-0.114
42.5,-0.153,1.057,0.03
42.51,-0.115,0.67,0.25
42.52,-0.347,1.193,-0.086
42.53,-0.233,0.733,-0.212
42.54,-0.069,1.252,0.12
42.55,-0.103,0.868,0.131
42.56,-0.283,0.816,0.028
42.57,-0.333,1.155,-0.158
42.58,-0.177,0.927,-0.02
42.59,-0.293,1.101,0.145
42.6,-0.088,0.687,0.161
42.61,-0.376,1.114,-0.176
42.62,-0.27,0.862,-0.113
42.63,-0.069,1.233,0.047
42.64,-0.091,0.787,0.106
42.65,-0.29,0.811,0.105
42.66,-0.357,1.253,-0.234
42.67,-0.089,0.802,-0.059
42.68,-0.267,1.163,0.209
42.69,0.005,0.681,0.123
42.7,-0.472,1.1,-0.198
42.71,-0.163,0.925,-0.05
42.72,-0.125,1.197,0.049
42.73,-0.152,0.792,0.135
42.74,-0.233,0.781,0.058
42.75,-0.338,1.102,-0.236
42.76,-0.132,0.882,0.035
42.77,-0.075,1.2,0.112
42.78,-0.114,0.613,0.046
42.79,-0.43,1.235,-0.154
42.8,-0.093,0.949,-0.06
42.81,-0.207,1.092,0.08
42.82,-0.11,0.781,0.125
42.83,-0.197,0.942,-0.1
42.84,-0.402,1.09,-0.163
42.85,-0.151,0.894,0.131
42.86,-0.134,1.24,0.097
42.87,-0.139,0.546,0.005
42.88,-0.449,1.23,-0.101
42.89,-0.125,1.029,-0.055
42.9,-0.259,1.002,0.071
42.91,-0.058,0.879,0.21
42.92,-0.366,0.888,-0.111
42.93,-0.336,1.109,-0.147
42.94,0.017,0.937,0.112
42.95,-0.191,1.087,0.149
42.96,-0.237,0.652,0.011
42.97,-0.312,1.32,-0.195
42.98,-0.162,0.971,-0.108
42.99,-0.216,0.917,0.191
43.0,-0.026,0.944,0.129
43.01,-0.468,0.802,-0.157
43.02,-0.213,1.172,-0.106
43.03,-0.056,0.952,0.096
43.04,-0.234,0.996,0.165
43.05,-0.177,0.719,0.008
43.06,-0.326,1.226,-0.198
43.07,-0.263,0.945,-0.033
43.08,-0.167,0.881,0.186
43.09,-0.09,0.998,0.07
43.1,-0.419,0.767,-0.187
43.11,-0.204,1.265,-0.017
43.12,-0.038,0.904,0.053
43.13,-0.225,0.907,0.153
43.14,-0.145,0.841,-0.005
43.15,-0.336,1.167,-0.208
43.16,-0.231,0.986,0.003
43.17,-0.004,0.862,0.144
43.18,-0.166,1.017,0.071
43.19,-0.404,0.797,-0.126
43.2,-0.18,1.333,-0.088
43.21,-0.133,0.781,0.072
43.22,-0.186,0.885,0.159
43.23,-0.181,0.956,-0.08
43.24,-0.325,1.041,-0.204
43.25,-0.17,1.045,0.035
43.26,-0.077,0.806,0.183
43.27,-0.123,1.041,0.038
43.28,-0.432,0.811,-0.171
43.29,-0.119,1.197,-0.07
43.3,-0.032,0.863,0.074
43.31,-0.238,0.897,0.177
43.32,-0.247,0.967,-0.05
43.33,-0.348,0.947,-0.14
43.34,-0.183,1.161,0.05
43.35,0.024,0.773,0.164
43.36,-0.252,1.026,-0.038
43.37,-0.345,0.812,-0.114
43.38,-0.18,1.226,-0.065
43.39,-0.155,0.812,0.09
43.4,-0.08,0.885,0.113
43.41,-0.389,1.08,-0.132
43.42,-0.342,0.847,-0.107
43.43,-0.016,1.266,0.043
43.44,-0.033,0.648,0.13
43.45,-0.353,1.094,0.121
43.46,-0.34,0.913,-0.225
43.47,-0.164,1.062,-0.104
43.48,-0.165,0.936,0.22
43.49,-0.085,0.818,0.091
43.5,-0.419,1.043,-0.172
43.51,-0.201,0.871,-0.04
43.52,-0.049,1.301,0.02
43.53,-0.102,0.59,0.162
43.54,-0.244,1.108,0.043
43.55,-0.393,0.986,-0.24
43.56,-0.132,0.96,0.0
43.57,-0.037,0.911,0.108
43.58,-0.196,0.87,0.065
43.59,-0.371,0.981,-0.199
43.6,-0.074,0.975,-0.047
43.61,-0.137,1.171,0.067
43.62,-0.129,0.584,0.152
43.63,-0.295,1.186,-0.057
43.64,-0.31,0.856,-0.232
43.65,-0.142,1.084,0.057
43.66,-0.098,0.953,0.154
43.67,-0.158,0.781,-0.019
43.68,-0.45,1.095,-0.174
43.69,-0.119,0.937,-0.036
43.7,-0.18,1.104,0.085
43.71,-0.138,0.663,0.166
43.72,-0.351,1.172,-0.135
43.73,-0.279,0.866,-0.156
43.74,-0.073,1.173,0.134
43.75,-0.145,0.904,0.134
43.76,-0.219,0.76,0.043
43.77,-0.44,1.267,-0.141
43.78,-0.139,0.817,-0.018
43.79,-0.254,1.137,0.155
43.8,-0.027,0.712,0.128
43.81,-0.467,1.095,-0.159
43.82,-0.291,0.913,-0.072
43.83,0.022,1.143,0.042
43.84,-0.148,0.879,0.08
43.85,-0.237,0.727,0.016
43.86,-0.374,1.294,-0.207
43.87,-0.114,0.784,0.006
43.88,-0.187,1.162,0.17
43.89,-0.081,0.698,0.076
43.9,-0.458,1.08,-0.18
43.91,-0.18,1.052,-0.061
43.92,-0.067,0.962,0.113
43.93,-0.183,0.934,0.162
43.94,-0.209,0.724,-0.059
43.95,-0.359,1.277,-0.192
43.96,-0.146,0.875,0.056
43.97,-0.135,1.139,0.107
43.98,-0.1,0.701,0.007
43.99,-0.419,1.081,-0.155
44.0,-0.123,1.159,-0.041
44.01,-0.138,0.826,0.096
44.02,-0.165,1.01,0.157
44.03,-0.226,0.762,-0.14
44.04,-0.34,1.208,-0.175
44.05,-0.068,0.929,0.098
44.06,-0.088,1.055,0.13
44.07,-0.26,0.748,0.038
44.08,-0.434,1.085,-0.152
44.09,-0.085,1.127,-0.074
44.1,-0.155,0.733,0.139
44.11,-0.158,1.086,0.174
44.12,-0.338,0.773,-0.192
44.13,-0.279,1.18,-0.097
44.14,-0.045,0.976,0.127
44.15,-0.181,0.919,0.113
44.16,-0.259,0.844,0.009
44.17,-0.277,1.043,-0.212
44.18,-0.128,1.104,-0.039
44.19,-0.165,0.701,0.255
44.2,-0.136,1.062,0.062
44.21,-0.382,0.753,-0.213
44.22,-0.166,1.25,-0.054
44.23,-0.038,0.966,0.09
44.24,-0.235,0.795,0.206
44.25,-0.226,1.024,-0.057
44.26,-0.297,0.922,-0.243
44.27,-0.189,1.155,0.139
44.28,-0.018,0.782,0.162
44.29,-0.308,1.015,0.016
44.3,-0.254,0.843,-0.145
44.31,-0.235,1.214,-0.038
44.32,-0.137,0.866,0.081
44.33,-0.101,0.84,0.159
44.34,-0.289,1.081,-0.158
44.35,-0.299,0.84,-0.13
44.36,-0.027,1.306,0.068
44.37,-0.097,0.639,0.115
44.38,-0.274,1.017,0.063
44.39,-0.301,0.934,-0.227
44.4,-0.2,1.119,-0.012
44.41,-0.179,0.804,0.193
44.42,-0.092,0.939,0.043
44.43,-0.381,0.993,-0.214
44.44,-0.178,0.949,-0.019
44.45,-0.048,1.209,0.056
44.46,-0.147,0.595,0.135
44.47,-0.261,1.135,0.004
44.48,-0.383,0.926,-0.201
44.49,-0.14,1.072,0.016
44.5,-0.126,0.91,0.177
44.51,-0.185,0.812,0.019
44.52,-0.447,1.106,-0.177
44.53,-0.059,0.958,-0.088
44.54,-0.128,1.124,0.025
44.55,-0.095,0.664,0.214
44.56,-0.348,1.169,-0.106
44.57,-0.297,0.819,-0.176
44.58,-0.009,1.186,0.05
44.59,-0.129,0.914,0.149
44.6,-0.283,0.781,0.065
44.61,-0.355,1.23,-0.225
44.62,-0.1,0.808,-0.08
44.63,-0.27,1.193,0.196
44.64,-0.022,0.693,0.136
44.65,-0.46,1.047,-0.19
44.66,-0.145,0.928,-0.093
44.67,-0.031,1.177,0.024
44.68,-0.193,0.831,0.134
44.69,-0.194,0.727,0.053
44.7,-0.355,1.341,-0.222
44.71,-0.151,0.778,0.018
44.72,-0.146,1.21,0.156
44.73,-0.149,0.725,0.094
44.74,-0.483,1.032,-0.141
44.75,-0.124,1.026,-0.08
44.76,-0.059,1.04,0.089
44.77,-0.171,0.893,0.124
44.78,-0.237,0.771,-0.03
44.79,-0.404,1.27,-0.196
44.8,-0.094,0.81,0.032
44.81,-0.103,1.166,0.133
44.82,-0.16,0.754,0.053
44.83,-0.451,1.052,-0.183
44.84,-0.17,1.105,-0.064
44.85,-0.013,0.855,0.086
44.86,-0.237,1.001,0.201
44.87,-0.302,0.757,-0.104
44.88,-0.336,1.216,-0.187
44.89,-0.048,0.888,0.135
44.9,-0.176,1.063,0.146
44.91,-0.125,0.732,-0.011
44.92,-0.375,1.125,-0.151
44.93,-0.196,1.082,-0.04
44.94,-0.16,0.803,0.19
44.95,-0.102,1.051,0.132
44.96,-0.376,0.72,-0.185
44.97,-0.198,1.207,-0.135
44.98,-0.053,0.998,0.082
44.99,-0.137,0.889,0.078
45.0,-0.257,0.835,0.049
45.01,-0.339,1.066,-0.196
45.02,-0.075,1.112,-0.057
45.03,-0.239,0.733,0.208
45.04,-0.114,1.081,0.098
45.05,-0.383,0.758,-0.221
45.06,-0.205,1.187,-0.057
45.07,-0.049,0.969,0.055
45.08,-0.165,0.772,0.098
45.09,-0.266,0.98,0.019
45.1,-0.343,0.981,-0.221
45.11,-0.047,1.14,-0.023
45.12,-0.121,0.755,0.172
45.13,-0.112,1.028,0.035
45.14,-0.443,0.9,-0.162
45.15,-0.143,1.149,-0.12
45.16,-0.067,0.839,0.111
45.17,-0.201,0.875,0.205
45.18,-0.392,1.05,-0.105
45.19,-0.269,0.803,-0.156
45.2,-0.094,1.194,0.097
45.21,-0.134,0.626,0.155
45.22,-0.31,1.066,0.043
45.23,-0.371,0.917,-0.204
45.24,-0.173,1.168,-0.027
45.25,-0.045,0.817,0.137
45.26,-0.247,0.941,0.097
45.27,-0.326,0.973,-0.187
45.28,-0.16,0.994,-0.065
45.29,-0.13,1.107,0.106
45.3,-0.074,0.701,0.14
45.31,-0.414,1.11,-0.065
45.32,-0.373,0.774,-0.17
45.33,-0.014,1.237,0.032
45.34,-0.144,0.887,0.136
45.35,-0.216,0.816,0.027
45.36,-0.316,1.125,-0.123
45.37,-0.178,0.951,-0.068
45.38,-0.105,1.09,0.105
45.39,-0.083,0.689,0.162
45.4,-0.405,1.127,-0.163
45.41,-0.277,0.85,-0.191
45.42,-0.018,1.229,0.089
45.43,-0.206,0.825,0.145
45.44,-0.267,0.792,0.076
45.45,-0.351,1.295,-0.234
45.46,-0.121,0.771,-0.035
45.47,-0.071,1.175,0.176
45.48,-0.134,0.698,0.092
45.49,-0.458,1.054,-0.188
45.5,-0.087,1.006,-0.057
45.51,-0.105,1.053,0.065
45.52,-0.162,0.881,0.152
45.53,-0.239,0.771,-0.036
45.54,-0.421,1.209,-0.211
45.55,-0.057,0.85,0.081
45.56,-0.116,1.203,0.129
45.57,-0.135,0.615,0.038
45.58,-0.391,1.199,-0.161
45.59,-0.098,1.06,-0.121
45.6,-0.16,0.835,0.143
45.61,-0.144,1.017,0.186
45.62,-0.393,0.776,-0.15
45.63,-0.288,1.139,-0.139
45.64,-0.02,0.991,0.117
45.65,-0.223,1.042,0.143
45.66,-0.208,0.712,0.032
45.67,-0.293,1.18,-0.235
45.68,-0.153,1.019,-0.054
45.69,-0.072,0.843,0.214
45.7,-0.142,1.043,0.069
45.71,-0.423,0.724,-0.197
45.72,-0.153,1.297,-0.052
45.73,-0.114,0.913,0.087
45.74,-0.264,0.887,0.161
45.75,-0.178,0.869,-0.018
45.76,-0.342,1.093,-0.242
45.77,-0.196,1.057,0.125
45.78,-0.055,0.829,0.156
45.79,-0.208,0.985,0.002
45.8,-0.387,0.804,-0.117
45.81,-0.189,1.308,-0.058
45.82,-0.116,0.729,0.082
45.83,-0.109,0.989,0.177
45.84,-0.36,0.882,-0.132
45.85,-0.349,0.933,-0.14
45.86,-0.004,1.199,0.044
45.87,-0.046,0.609,0.063
45.88,-0.328,1.066,0.064
45.89,-0.304,0.94,-0.165
45.9,-0.147,1.104,-0.045
45.91,-0.142,0.779,0.206
45.92,-0.086,0.914,0.055
45.93,-0.432,0.942,-0.224
45.94,-0.156,0.967,-0.035
45.95,-0.091,1.262,0.063
45.96,-0.198,0.57,0.122
45.97,-0.159,1.132,-0.025
45.98,-0.373,0.968,-0.205
45.99,-0.144,1.042,0.051
46.0,-0.002,0.951,0.105
46.01,-0.156,0.84,0.013
46.02,-0.329,1.001,-0.198
46.03,-0.215,0.955,-0.03
46.04,-0.143,1.062,0.095
46.05,-0.134,0.709,0.174
46.06,-0.43,1.097,-0.153
46.07,-0.223,0.813,-0.085
46.08,-0.139,1.296,0.072
46.09,-0.081,0.687,0.155
46.1,-0.242,0.936,0.035
46.11,-0.333,1.124,-0.229
46.12,-0.125,0.884,-0.004
46.13,-0.19,1.129,0.107
46.14,-0.096,0.636,0.062
46.15,-0.447,1.191,-0.171
46.16,-0.166,0.951,-0.054
46.17,-0.105,1.144,0.097
46.18,-0.121,0.725,0.143
46.19,-0.292,0.89,-0.072
46.2,-0.356,1.112,-0.212
46.21,0.051,0.908,0.015
46.22,-0.197,1.166,0.134
46.23,-0.156,0.62,0.072
46.24,-0.457,1.224,-0.193
46.25,-0.113,0.949,-0.081
46.26,-0.116,1.051,0.117
46.27,-0.181,0.861,0.174
46.28,-0.307,0.88,-0.155
46.29,-0.267,1.13,-0.205
46.3,0.046,0.906,0.081
46.31,-0.178,1.09,0.152
46.32,-0.277,0.662,0.045
46.33,-0.388,1.235,-0.219
46.34,-0.13,0.927,-0.06
46.35,-0.09,0.976,0.18
46.36,-0.186,0.937,0.131
46.37,-0.394,0.82,-0.199
46.38,-0.203,1.268,-0.058
46.39,-0.014,0.81,0.079
46.4,-0.274,1.014,0.162
46.41,-0.164,0.715,-0.022
46.42,-0.358,1.168,-0.197
46.43,-0.135,1.006,0.034
46.44,-0.098,0.949,0.136
46.45,-0.172,0.923,0.085
46.46,-0.397,0.879,-0.137
46.47,-0.154,1.281,-0.08
46.48,-0.077,0.768,0.118
46.49,-0.235,1.032,0.18
46.5,-0.252,0.787,-0.122
46.51,-0.239,1.071,-0.18
46.52,-0.105,1.143,0.129
46.53,-0.12,0.799,0.111
46.54,-0.215,0.963,0.023
46.55,-0.311,0.957,-0.202
46.56,-0.151,1.225,-0.069
46.57,-0.187,0.708,0.183
46.58,-0.113,1.025,0.102
46.59,-0.38,0.836,-0.18
46.6,-0.199,1.027,-0.077
46.61,-0.138,1.161,0.073
46.62,-0.143,0.615,0.112
46.63,-0.23,1.127,0.045
46.64,-0.369,0.911,-0.206
46.65,-0.153,1.14,-0.0
46.66,-0.027,0.842,0.178
46.67,-0.172,0.897,0.048
46.68,-0.429,0.978,-0.136
46.69,-0.109,1.02,-0.106
46.7,-0.108,1.042,0.035
46.71,-0.127,0.665,0.215
46.72,-0.333,1.139,-0.093
46.73,-0.351,0.755,-0.148
46.74,-0.141,1.227,0.121
46.75,-0.109,0.868,0.117
46.76,-0.185,0.845,0.015
46.77,-0.363,1.106,-0.143
46.78,-0.173,0.95,-0.068
46.79,-0.161,1.071,0.105
46.8,-0.073,0.694,0.144
46.81,-0.411,1.117,-0.132
46.82,-0.327,0.838,-0.093
46.83,-0.091,1.238,0.089
46.84,-0.125,0.583,0.115
46.85,-0.222,1.028,0.026
46.86,-0.351,1.095,-0.243
46.87,-0.109,0.917,-0.02
46.88,-0.147,1.042,0.172
46.89,-0.154,0.689,0.114
46.9,-0.5,1.172,-0.174
46.91,-0.11,0.883,-0.07
46.92,-0.16,1.205,0.049
46.93,-0.146,0.645,0.167
46.94,-0.22,0.993,-0.031
46.95,-0.352,1.085,-0.217
46.96,-0.095,0.913,0.029
46.97,-0.021,1.176,0.134
46.98,-0.169,0.626,0.037
46.99,-0.464,1.209,-0.179
47.0,-0.053,0.947,-0.103
47.01,-0.163,1.052,0.065
47.02,-0.118,0.805,0.178
47.03,-0.311,0.926,-0.167
47.04,-0.331,1.06,-0.173
47.05,0.042,0.98,0.093
47.06,-0.163,1.101,0.135
47.07,-0.271,0.643,0.059
47.08,-0.333,1.28,-0.23
47.09,-0.164,0.885,-0.069
47.1,-0.155,0.996,0.214
47.11,-0.124,0.864,0.077
47.12,-0.407,0.911,-0.177
47.13,-0.27,1.231,-0.07
47.14,-0.007,0.908,0.043
47.15,-0.245,0.985,0.125
47.16,-0.117,0.706,-0.005
47.17,-0.383,1.318,-0.195
47.18,-0.155,0.859,0.006
47.19,-0.07,0.983,0.123
47.2,-0.131,0.943,0.038
47.21,-0.374,0.867,-0.189
47.22,-0.21,1.258,-0.024
47.23,-0.102,0.794,0.127
47.24,-0.194,1.025,0.152
47.25,-0.237,0.78,-0.077
47.26,-0.363,1.151,-0.219
47.27,-0.076,0.96,0.053
47.28,0.001,0.968,0.16
47.29,-0.307,0.937,0.03
47.3,-0.374,0.852,-0.127
47.31,-0.121,1.31,-0.075
47.32,-0.097,0.686,0.116
47.33,-0.162,1.048,0.134
47.34,-0.321,0.844,-0.122
47.35,-0.312,1.115,-0.138
47.36,-0.03,1.073,0.086
47.37,-0.148,0.711,0.174
47.38,-0.285,1.06,0.027
47.39,-0.409,0.885,-0.169
47.4,-0.16,1.198,-0.025
47.41,-0.11,0.778,0.155
47.42,-0.178,0.963,0.066
47.43,-0.329,0.919,-0.19
47.44,-0.187,1.047,-0.071
47.45,-0.116,1.063,0.096
47.46,-0.15,0.672,0.211
47.47,-0.335,1.139,-0.074
47.48,-0.307,0.826,-0.137
47.49,-0.134,1.213,0.05
47.5,-0.099,0.778,0.121
47.51,-0.188,0.929,0.039
47.52,-0.362,1.048,-0.211
47.53,-0.18,0.985,-0.091
47.54,-0.075,1.018,0.088
47.55,-0.11,0.697,0.184
47.56,-0.41,1.119,-0.154
47.57,-0.203,0.792,-0.146
47.58,-0.088,1.254,0.106
47.59,-0.113,0.734,0.125
47.6,-0.239,0.882,0.023
47.61,-0.408,1.194,-0.138
47.62,-0.088,0.871,-0.015
47.63,-0.2,1.126,0.181
47.64,-0.091,0.706,0.109
47.65,-0.481,1.177,-0.169
47.66,-0.172,0.866,-0.023
47.67,-0.125,1.228,0.09
47.68,-0.181,0.651,0.136
47.69,-0.249,1.048,-0.09
47.7,-0.344,1.022,-0.215
47.71,-0.117,0.983,0.121
47.72,-0.069,1.067,0.13
47.73,-0.209,0.652,0.009
47.74,-0.447,1.25,-0.201
47.75,-0.037,0.886,-0.059
47.76,-0.205,1.095,0.131
47.77,-0.164,0.75,0.173
47.78,-0.346,1.01,-0.176
47.79,-0.289,1.035,-0.126
47.8,-0.075,0.975,0.131
47.81,-0.129,1.029,0.099
47.82,-0.178,0.651,-0.016
47.83,-0.422,1.323,-0.172
47.84,-0.113,0.861,-0.002
47.85,-0.157,1.054,0.184
47.86,-0.153,0.821,0.127
47.87,-0.429,0.971,-0.17
47.88,-0.199,1.121,-0.054
47.89,-0.051,0.872,0.101
47.9,-0.202,1.014,0.106
47.91,-0.237,0.707,-0.058
47.92,-0.324,1.273,-0.202
47.93,-0.153,0.872,0.07
47.94,-0.088,1.044,0.169
47.95,-0.167,0.83,-0.011
47.96,-0.458,0.931,-0.175
47.97,-0.007,1.257,-0.04
47.98,-0.115,0.782,0.143
47.99,-0.246,1.037,0.176
48.0,-0.288,0.763,-0.161
48.01,-0.329,1.204,-0.16
48.02,0.041,0.965,0.092
48.03,-0.103,0.869,0.119
48.04,-0.36,0.896,0.014
48.05,-0.288,0.99,-0.173
48.06,-0.098,1.221,-0.07
48.07,-0.093,0.714,0.214
48.08,-0.161,1.057,0.065
48.09,-0.413,0.844,-0.205
48.1,-0.169,1.14,-0.104
48.11,-0.052,0.92,0.078
48.12,-0.158,0.824,0.131
48.13,-0.336,1.033,-0.093
48.14,-0.269,0.841,-0.152
48.15,-0.126,1.288,0.114
48.16,-0.093,0.668,0.118
48.17,-0.295,1.024,0.019
48.18,-0.338,0.989,-0.215
48.19,-0.083,1.062,-0.076
48.2,-0.187,0.92,0.163
48.21,-0.123,0.759,0.106
48.22,-0.395,1.132,-0.165
48.23,-0.238,0.876,-0.047
48.24,-0.094,1.251,0.084
48.25,-0.115,0.635,0.138
48.26,-0.329,1.025,0.018
48.27,-0.299,1.044,-0.265
48.28,-0.057,0.985,-0.009
48.29,-0.111,1.065,0.159
48.3,-0.177,0.676,0.046
48.31,-0.471,1.261,-0.156
48.32,-0.102,0.916,-0.061
48.33,-0.151,1.113,0.069
48.34,-0.123,0.735,0.181
48.35,-0.337,1.026,-0.153
48.36,-0.315,0.99,-0.21
48.37,-0.106,0.983,0.139
48.38,-0.087,1.023,0.119
